icmT,accX,accY,accZ,accT,gyrX,gyrY,gyrZ,gyrT,magX,magY,magZ,magT
0.000000,-0.407715,0.129883,0.907715,0.000000,0.650406,-0.230789,0.051498,0.000000,15.299957,-25.950012,-101.550003,0.000000
10.000000,-0.409668,0.140625,0.902344,1.000000,0.284195,0.131607,-0.310898,1.000000,16.199966,-25.950012,-101.550003,1.000000
20.000000,-0.414551,0.151367,0.897461,2.000000,0.284195,-0.108719,0.112534,2.000000,15.899963,-25.500000,-100.650009,2.000000
30.000000,-0.418945,0.139648,0.899902,3.000000,-0.566483,0.131607,0.234604,3.000000,15.899963,-25.800003,-102.000000,3.000000
40.000000,-0.420410,0.143555,0.896972,4.000000,0.040054,-0.597000,-0.127792,4.000000,15.299957,-25.800003,-102.000000,4.000000
50.000000,-0.406738,0.123535,0.916992,5.000000,0.101089,0.131607,-0.066757,5.000000,16.199966,-26.700012,-100.500000,5.000000
60.000000,-0.410156,0.138184,0.891601,6.000000,-0.200272,0.009537,0.234604,6.000000,16.199966,-26.250000,-101.700012,6.000000
70.000000,-0.414551,0.137207,0.891601,7.000000,0.223160,0.314713,0.234604,7.000000,14.849960,-26.250000,-101.700012,7.000000
80.000000,-0.405762,0.145508,0.903320,8.000000,0.284195,-0.108719,-0.127792,8.000000,16.349960,-25.500000,-100.650009,8.000000
90.000000,-0.411621,0.145020,0.907715,9.000000,-0.444412,-0.474930,-0.494003,9.000000,16.349960,-25.200012,-102.150009,9.000000
100.000000,-0.414062,0.145996,0.901855,10.000000,-0.139236,0.375748,-0.127792,10.000000,16.799957,-25.200012,-102.150009,10.000000
110.000000,-0.395996,0.132324,0.911621,11.000000,-0.261307,0.436783,-0.066757,11.000000,16.199966,-26.400009,-101.100006,11.000000
120.000000,-0.399414,0.142578,0.913086,12.000000,0.589371,-0.108719,0.051498,12.000000,15.749954,-25.050003,-101.250000,12.000000
130.000000,-0.413574,0.134277,0.905761,13.000000,-0.444412,0.131607,0.173569,13.000000,15.749954,-26.700012,-101.100006,13.000000
140.000000,-0.408691,0.148437,0.903320,14.000000,0.162125,0.192642,0.173569,14.000000,16.949966,-26.700012,-101.100006,14.000000
150.000000,-0.402344,0.136719,0.896972,15.000000,-0.322342,0.131607,-0.310898,15.000000,15.299957,-25.800003,-101.700012,15.000000
160.000000,-0.418457,0.133301,0.908691,16.000000,-0.078201,-0.108719,0.417709,16.000000,15.299957,-26.700012,-100.050003,16.000000
170.000000,-0.417969,0.138184,0.904297,17.000000,0.772476,-0.352859,-0.555038,17.000000,15.899963,-26.700012,-100.050003,17.000000
180.000000,-0.421387,0.146973,0.901855,18.000000,0.894547,-0.291824,-0.249863,18.000000,16.349960,-26.250000,-102.000000,18.000000
190.000000,-0.398926,0.149902,0.905761,19.000000,0.345230,-0.474930,-0.066757,19.000000,16.349960,-26.400009,-101.850006,19.000000
200.000000,-0.401367,0.145020,0.908203,20.000000,0.223160,0.192642,0.173569,20.000000,15.899963,-26.400009,-101.850006,20.000000
210.000000,-0.402832,0.142578,0.900390,21.000000,0.284195,0.314713,-0.066757,21.000000,14.999954,-27.750000,-100.200012,21.000000
220.000000,-0.423340,0.133301,0.922851,22.000000,-0.078201,0.192642,-0.249863,22.000000,16.799957,-25.950012,-101.550003,22.000000
230.000000,-0.413574,0.143555,0.906250,23.000000,0.101089,-0.352859,0.051498,23.000000,16.949966,-25.950012,-100.800003,23.000000
240.000000,-0.408203,0.130371,0.907715,24.000000,-0.139236,-0.108719,-0.310898,24.000000,16.949966,-26.250000,-101.700012,24.000000
250.000000,-0.410644,0.127441,0.906738,25.000000,-0.139236,-0.291824,0.112534,25.000000,15.899963,-26.250000,-101.700012,25.000000
260.000000,-0.423828,0.130859,0.900390,26.000000,-0.383377,-0.474930,0.173569,26.000000,14.999954,-27.000000,-100.950012,26.000000
270.000000,-0.406250,0.138672,0.909668,27.000000,0.040054,-0.352859,-0.371933,27.000000,17.099960,-25.200012,-101.850006,27.000000
280.000000,-0.408203,0.139648,0.910644,28.000000,0.223160,0.009537,0.051498,28.000000,17.099960,-24.900009,-100.050003,28.000000
290.000000,-0.413574,0.132812,0.898437,29.000000,0.040054,0.497818,-0.371933,29.000000,15.899963,-24.900009,-100.050003,29.000000
300.000000,-0.416016,0.151367,0.908203,30.000000,0.284195,0.070572,0.051498,30.000000,16.949966,-25.800003,-100.950012,30.000000
310.000000,-0.418457,0.126953,0.921875,31.000000,0.467300,-0.047684,-0.127792,31.000000,16.949966,-25.800003,-100.950012,31.000000
320.000000,-0.407715,0.142090,0.924804,32.000000,0.101089,-0.169754,-0.127792,32.000000,15.749954,-25.800003,-100.950012,32.000000
330.000000,-0.413574,0.139160,0.896972,33.000000,-0.627518,0.192642,0.295639,33.000000,15.749954,-26.700012,-100.800003,33.000000
340.000000,-0.421387,0.139160,0.913574,34.000000,-0.383377,0.070572,0.051498,34.000000,15.749954,-24.450012,-101.850006,34.000000
350.000000,-0.418945,0.125977,0.906738,35.000000,-0.444412,0.070572,-0.005722,35.000000,15.299957,-24.450012,-101.850006,35.000000
360.000000,-0.430664,0.129883,0.887695,36.000000,0.589371,0.192642,0.173569,36.000000,15.299957,-25.950012,-100.500000,36.000000
370.000000,-0.426269,0.132324,0.898926,37.000000,0.894547,0.192642,-0.310898,37.000000,15.299957,-26.700012,-100.800003,37.000000
380.000000,-0.412598,0.134766,0.905761,38.000000,-0.139236,0.314713,0.112534,38.000000,16.049957,-26.700012,-100.800003,38.000000
390.000000,-0.426758,0.130859,0.906738,39.000000,-0.017166,0.253677,-0.188828,39.000000,16.049957,-26.400009,-102.150009,39.000000
400.000000,-0.403809,0.142578,0.915527,40.000000,-0.139236,-0.474930,0.112534,40.000000,16.049957,-25.950012,-101.850006,40.000000
410.000000,-0.409180,0.143066,0.900879,41.000000,0.528336,-0.047684,-0.127792,41.000000,17.099960,-25.950012,-101.850006,41.000000
420.000000,-0.409668,0.150391,0.896972,42.000000,0.284195,0.131607,-0.310898,42.000000,16.949966,-25.200012,-102.150009,42.000000
430.000000,-0.400879,0.144531,0.900390,43.000000,-0.200272,-0.535965,-0.310898,43.000000,16.949966,-26.550003,-101.700012,43.000000
440.000000,-0.409668,0.126953,0.896484,44.000000,-0.383377,-0.169754,-0.127792,44.000000,16.049957,-26.550003,-101.700012,44.000000
450.000000,-0.402344,0.143066,0.913574,45.000000,-0.383377,-0.169754,0.051498,45.000000,16.199966,-25.200012,-102.900009,45.000000
460.000000,-0.409668,0.126465,0.891601,46.000000,-0.627518,0.131607,-0.555038,46.000000,16.199966,-24.300003,-100.200012,46.000000
470.000000,-0.410644,0.135742,0.898926,47.000000,-0.383377,0.436783,0.112534,47.000000,17.249954,-24.300003,-100.200012,47.000000
480.000000,-0.404785,0.130371,0.915039,48.000000,0.101089,0.192642,-0.188828,48.000000,16.949966,-25.800003,-100.950012,48.000000
490.000000,-0.402344,0.135742,0.902344,49.000000,0.284195,-0.352859,-0.310898,49.000000,16.949966,-25.050003,-101.700012,49.000000
500.000000,-0.414062,0.137207,0.910644,50.000000,0.711441,0.253677,0.173569,50.000000,16.949966,-25.050003,-101.700012,50.000000
510.000000,-0.405273,0.141113,0.918945,51.000000,0.650406,0.375748,0.295639,51.000000,15.749954,-26.250000,-101.250000,51.000000
520.000000,-0.409180,0.144043,0.899414,52.000000,-0.566483,-0.108719,-0.188828,52.000000,15.749954,-25.950012,-102.150009,52.000000
530.000000,-0.406738,0.134766,0.916504,53.000000,0.406265,0.192642,0.051498,53.000000,17.249954,-25.950012,-102.150009,53.000000
540.000000,-0.416992,0.133301,0.904785,54.000000,-0.200272,0.680923,-0.066757,54.000000,16.199966,-26.550003,-100.200012,54.000000
550.000000,-0.411133,0.130859,0.907715,55.000000,-0.566483,-0.047684,0.051498,55.000000,16.199966,-26.550003,-102.000000,55.000000
560.000000,-0.430664,0.139648,0.905761,56.000000,-0.078201,0.009537,0.478745,56.000000,16.049957,-26.550003,-102.000000,56.000000
570.000000,-0.416992,0.126953,0.895996,57.000000,-0.078201,0.070572,0.234604,57.000000,16.049957,-25.650009,-101.100006,57.000000
580.000000,-0.418457,0.138184,0.910156,58.000000,-0.200272,-0.230789,0.051498,58.000000,16.049957,-25.650009,-100.800003,58.000000
590.000000,-0.413086,0.128906,0.912109,59.000000,-0.078201,-0.902176,0.112534,59.000000,16.049957,-25.650009,-100.500000,59.000000
600.000000,-0.416504,0.135742,0.891601,60.000000,0.101089,-0.597000,-0.127792,60.000000,15.149963,-25.650009,-100.500000,60.000000
610.000000,-0.402344,0.143066,0.902832,61.000000,-0.017166,-0.047684,-0.371933,61.000000,16.799957,-26.250000,-100.950012,61.000000
620.000000,-0.405273,0.145508,0.910644,62.000000,-0.810623,-0.108719,-0.188828,62.000000,16.799957,-25.950012,-101.850006,62.000000
630.000000,-0.413086,0.141602,0.901367,63.000000,0.223160,-0.230789,-0.005722,63.000000,16.349960,-25.950012,-101.850006,63.000000
640.000000,-0.413086,0.128906,0.907226,64.000000,0.040054,0.192642,0.051498,64.000000,16.649963,-25.950012,-101.850006,64.000000
650.000000,-0.419922,0.137207,0.900390,65.000000,-0.017166,0.253677,-0.432968,65.000000,16.649963,-25.800003,-100.200012,65.000000
660.000000,-0.424316,0.149902,0.900879,66.000000,0.162125,0.558853,0.173569,66.000000,15.899963,-25.800003,-100.200012,66.000000
670.000000,-0.408691,0.142578,0.897949,67.000000,0.284195,-0.108719,-0.127792,67.000000,15.749954,-27.300003,-102.450012,67.000000
680.000000,-0.406250,0.154785,0.903808,68.000000,0.040054,0.070572,0.417709,68.000000,15.749954,-26.400009,-101.100006,68.000000
690.000000,-0.412109,0.131836,0.897461,69.000000,0.467300,0.009537,-0.188828,69.000000,16.049957,-26.400009,-101.100006,69.000000
700.000000,-0.428711,0.144531,0.907715,70.000000,0.040054,0.070572,-0.188828,70.000000,15.899963,-26.700012,-101.550003,70.000000
710.000000,-0.409180,0.131348,0.901855,71.000000,-0.017166,0.619888,0.173569,71.000000,15.899963,-27.300003,-101.700012,71.000000
720.000000,-0.418457,0.138672,0.897461,72.000000,0.040054,0.314713,0.112534,72.000000,16.949966,-27.300003,-101.700012,72.000000
730.000000,-0.411133,0.143555,0.914062,73.000000,-0.200272,0.314713,0.234604,73.000000,15.749954,-25.800003,-102.750000,73.000000
740.000000,-0.411133,0.126953,0.906250,74.000000,0.101089,0.253677,0.051498,74.000000,16.799957,-25.650009,-101.100006,74.000000
750.000000,-0.408691,0.132324,0.899902,75.000000,-0.017166,0.131607,0.295639,75.000000,16.799957,-25.950012,-101.550003,75.000000
760.000000,-0.403320,0.129395,0.907226,76.000000,0.467300,-0.230789,0.295639,76.000000,16.199966,-25.950012,-101.550003,76.000000
770.000000,-0.402344,0.147949,0.908691,77.000000,0.406265,-0.108719,-0.249863,77.000000,17.099960,-27.300003,-99.900009,77.000000
780.000000,-0.409180,0.125488,0.897949,78.000000,0.589371,-0.047684,0.295639,78.000000,17.099960,-25.950012,-101.550003,78.000000
790.000000,-0.410644,0.131836,0.908691,79.000000,0.223160,0.009537,-0.249863,79.000000,16.349960,-25.950012,-101.550003,79.000000
800.000000,-0.396973,0.140625,0.901855,80.000000,0.284195,0.070572,-0.494003,80.000000,16.799957,-26.400009,-100.500000,80.000000
810.000000,-0.405762,0.147949,0.903808,81.000000,0.284195,0.192642,-0.432968,81.000000,16.799957,-25.650009,-100.500000,81.000000
820.000000,-0.424316,0.131348,0.907226,82.000000,-0.078201,0.131607,-0.494003,82.000000,16.949966,-25.650009,-100.500000,82.000000
830.000000,-0.410156,0.127441,0.911621,83.000000,0.223160,0.558853,-0.616074,83.000000,16.949966,-25.050003,-101.250000,83.000000
840.000000,-0.423340,0.139160,0.898437,84.000000,-0.017166,-0.047684,-0.188828,84.000000,16.049957,-25.050003,-101.250000,84.000000
850.000000,-0.407226,0.134277,0.903320,85.000000,0.162125,0.131607,-0.371933,85.000000,16.199966,-25.950012,-101.100006,85.000000
860.000000,-0.412109,0.130859,0.903320,86.000000,0.345230,0.314713,0.112534,86.000000,16.199966,-27.000000,-101.250000,86.000000
870.000000,-0.423828,0.127930,0.896484,87.000000,-0.444412,0.375748,0.356674,87.000000,16.049957,-27.000000,-101.250000,87.000000
880.000000,-0.416016,0.137207,0.897949,88.000000,-0.139236,-0.474930,0.051498,88.000000,16.049957,-25.950012,-101.100006,88.000000
890.000000,-0.420410,0.135742,0.907226,89.000000,-0.017166,0.009537,0.234604,89.000000,17.099960,-27.150009,-100.500000,89.000000
900.000000,-0.403809,0.146973,0.903808,90.000000,0.833511,0.070572,-0.310898,90.000000,17.099960,-27.150009,-101.100006,90.000000
910.000000,-0.411621,0.139160,0.902832,91.000000,0.162125,-0.291824,0.722885,91.000000,16.049957,-27.150009,-101.100006,91.000000
920.000000,-0.415039,0.129395,0.904297,92.000000,0.162125,0.253677,0.112534,92.000000,16.799957,-25.950012,-101.550003,92.000000
930.000000,-0.423828,0.134766,0.907715,93.000000,0.223160,0.192642,0.356674,93.000000,16.799957,-25.950012,-102.150009,93.000000
940.000000,-0.407226,0.131836,0.915527,94.000000,-0.261307,0.131607,-0.677109,94.000000,15.449966,-25.950012,-102.150009,94.000000
950.000000,-0.419922,0.128906,0.898437,95.000000,0.223160,0.131607,0.173569,95.000000,15.749954,-25.500000,-102.750000,95.000000
960.000000,-0.405273,0.133301,0.904297,96.000000,-0.139236,0.253677,0.478745,96.000000,15.749954,-25.200012,-99.300003,96.000000
970.000000,-0.395019,0.128906,0.899902,97.000000,-0.017166,0.497818,0.234604,97.000000,16.049957,-25.200012,-99.300003,97.000000
980.000000,-0.413086,0.126465,0.909179,98.000000,-0.078201,0.253677,0.234604,98.000000,16.649963,-26.700012,-101.850006,98.000000
990.000000,-0.421387,0.133789,0.897461,99.000000,0.589371,0.558853,0.051498,99.000000,16.649963,-25.500000,-101.700012,99.000000
1000.000000,-0.421387,0.121094,0.905273,100.000000,0.040054,0.314713,-0.005722,100.000000,15.449966,-25.500000,-101.700012,100.000000
1010.000000,-0.422363,0.145508,0.906738,101.000000,0.467300,0.192642,0.173569,101.000000,16.949966,-26.550003,-102.450012,101.000000
1020.000000,-0.409180,0.141113,0.914551,102.000000,-0.078201,0.192642,0.112534,102.000000,16.949966,-27.300003,-102.000000,102.000000
1030.000000,-0.419922,0.150391,0.892090,103.000000,0.284195,-0.474930,0.112534,103.000000,17.699966,-27.300003,-102.000000,103.000000
1040.000000,-0.406738,0.138672,0.907226,104.000000,-0.627518,0.070572,0.234604,104.000000,15.449966,-25.800003,-101.250000,104.000000
1050.000000,-0.410156,0.133789,0.907715,105.000000,-0.139236,0.314713,0.173569,105.000000,14.849960,-25.800003,-102.450012,105.000000
1060.000000,-0.416504,0.139160,0.901367,106.000000,-0.017166,0.070572,0.478745,106.000000,14.849960,-24.300003,-100.950012,106.000000
1070.000000,-0.410644,0.143555,0.895019,107.000000,-0.078201,0.436783,-0.494003,107.000000,17.099960,-24.300003,-100.950012,107.000000
1080.000000,-0.413086,0.122070,0.904785,108.000000,0.467300,-0.047684,-0.494003,108.000000,16.199966,-25.950012,-101.550003,108.000000
1090.000000,-0.413574,0.132812,0.901367,109.000000,-0.261307,0.375748,-0.310898,109.000000,16.199966,-25.800003,-102.450012,109.000000
1100.000000,-0.407715,0.137695,0.924804,110.000000,0.284195,-0.352859,-0.127792,110.000000,15.899963,-25.800003,-102.450012,110.000000
1110.000000,-0.413574,0.137207,0.902832,111.000000,0.467300,0.436783,0.173569,111.000000,17.249954,-26.250000,-100.650009,111.000000
1120.000000,-0.424316,0.139160,0.898926,112.000000,0.528336,0.497818,-0.249863,112.000000,16.799957,-26.250000,-101.250000,112.000000
1130.000000,-0.414062,0.139648,0.903320,113.000000,0.101089,-0.291824,0.112534,113.000000,15.749954,-26.400009,-100.500000,113.000000
1140.000000,-0.412109,0.114746,0.916992,114.000000,0.040054,-0.108719,-0.371933,114.000000,15.749954,-24.450012,-102.150009,114.000000
1150.000000,-0.410156,0.132324,0.899902,115.000000,-0.261307,-0.352859,-0.127792,115.000000,16.649963,-24.450012,-102.150009,115.000000
1160.000000,-0.419922,0.134766,0.908203,116.000000,0.101089,0.253677,-0.005722,116.000000,17.849960,-25.800003,-100.950012,116.000000
1170.000000,-0.414551,0.132812,0.906250,117.000000,-0.322342,0.131607,-0.127792,117.000000,17.849960,-24.450012,-101.100006,117.000000
1180.000000,-0.416504,0.123535,0.897461,118.000000,-0.139236,-0.108719,0.356674,118.000000,16.949966,-24.450012,-101.100006,118.000000
1190.000000,-0.396973,0.144043,0.908203,119.000000,-0.078201,-0.230789,-0.799179,119.000000,16.199966,-25.800003,-98.850006,119.000000
1200.000000,-0.414062,0.129395,0.910156,120.000000,-0.139236,0.619888,0.295639,120.000000,17.249954,-26.550003,-100.650009,120.000000
1210.000000,-0.399902,0.137695,0.895019,121.000000,0.223160,0.009537,-0.738144,121.000000,17.249954,-26.250000,-102.450012,121.000000
1220.000000,-0.409668,0.144043,0.899414,122.000000,0.284195,-0.352859,-0.127792,122.000000,16.049957,-26.250000,-102.450012,122.000000
1230.000000,-0.418457,0.139648,0.907715,123.000000,0.284195,-0.169754,-0.066757,123.000000,16.199966,-26.700012,-103.200012,123.000000
1240.000000,-0.404785,0.136230,0.919922,124.000000,-0.078201,-0.474930,-0.249863,124.000000,16.199966,-27.000000,-101.700012,124.000000
1250.000000,-0.400879,0.132324,0.898926,125.000000,0.162125,0.131607,0.295639,125.000000,17.249954,-27.000000,-101.700012,125.000000
1260.000000,-0.417480,0.136719,0.892578,126.000000,0.162125,-0.352859,-0.066757,126.000000,15.899963,-25.050003,-102.750000,126.000000
1270.000000,-0.416504,0.143066,0.903808,127.000000,0.284195,-0.169754,0.539780,127.000000,15.899963,-25.050003,-101.700012,127.000000
1280.000000,-0.419922,0.144531,0.898926,128.000000,-0.444412,0.131607,0.112534,128.000000,17.099960,-25.050003,-101.700012,128.000000
1290.000000,-0.397461,0.134766,0.898437,129.000000,-0.688553,-0.108719,0.234604,129.000000,17.099960,-25.950012,-100.500000,129.000000
1300.000000,-0.421387,0.135742,0.914062,130.000000,0.040054,-0.230789,0.051498,130.000000,17.099960,-26.400009,-100.800003,130.000000
1310.000000,-0.397461,0.130859,0.914551,131.000000,-0.139236,0.558853,-0.432968,131.000000,16.649963,-26.400009,-100.800003,131.000000
1320.000000,-0.419434,0.124512,0.903808,132.000000,-0.017166,0.070572,0.234604,132.000000,16.349960,-26.250000,-100.950012,132.000000
1330.000000,-0.407715,0.150391,0.914062,133.000000,-0.261307,-0.047684,-0.371933,133.000000,16.349960,-27.450012,-101.100006,133.000000
1340.000000,-0.426758,0.130859,0.911133,134.000000,-0.383377,-0.047684,-0.127792,134.000000,16.199966,-27.450012,-101.100006,134.000000
1350.000000,-0.412109,0.124512,0.920898,135.000000,0.223160,0.009537,-0.005722,135.000000,16.199966,-25.050003,-100.950012,135.000000
1360.000000,-0.416016,0.136719,0.910644,136.000000,0.101089,0.131607,-0.066757,136.000000,16.949966,-26.250000,-101.250000,136.000000
1370.000000,-0.412109,0.142578,0.908691,137.000000,-0.139236,-0.413895,0.112534,137.000000,16.949966,-25.800003,-101.250000,137.000000
1380.000000,-0.411621,0.132324,0.907226,138.000000,0.406265,-0.230789,0.173569,138.000000,16.649963,-25.800003,-101.250000,138.000000
1390.000000,-0.417480,0.140137,0.910644,139.000000,0.101089,0.131607,0.112534,139.000000,16.349960,-25.050003,-101.700012,139.000000
1400.000000,-0.421387,0.141602,0.902344,140.000000,0.162125,0.375748,0.234604,140.000000,16.349960,-25.650009,-100.800003,140.000000
1410.000000,-0.417969,0.148437,0.914551,141.000000,0.162125,0.253677,0.600815,141.000000,15.899963,-25.650009,-100.800003,141.000000
1420.000000,-0.397949,0.143555,0.911133,142.000000,0.284195,-0.169754,-0.005722,142.000000,16.049957,-24.300003,-101.700012,142.000000
1430.000000,-0.420410,0.153809,0.915527,143.000000,0.284195,-0.169754,0.234604,143.000000,17.549957,-26.700012,-100.800003,143.000000
1440.000000,-0.411621,0.146484,0.901367,144.000000,-0.139236,-0.108719,0.051498,144.000000,16.649963,-25.650009,-100.500000,144.000000
1450.000000,-0.408203,0.139160,0.905273,145.000000,-0.017166,-0.230789,-0.066757,145.000000,16.649963,-27.750000,-101.700012,145.000000
1460.000000,-0.414062,0.130371,0.898437,146.000000,-0.322342,-0.413895,-0.005722,146.000000,17.249954,-27.750000,-101.700012,146.000000
1470.000000,-0.412109,0.133301,0.902344,147.000000,0.162125,-0.047684,-0.494003,147.000000,16.349960,-26.550003,-100.950012,147.000000
1480.000000,-0.412598,0.145996,0.894531,148.000000,0.101089,0.131607,-0.127792,148.000000,16.349960,-26.400009,-101.850006,148.000000
1490.000000,-0.404297,0.135742,0.911133,149.000000,-0.505447,0.314713,-0.432968,149.000000,17.099960,-26.400009,-101.850006,149.000000
1500.000000,-0.416504,0.136719,0.906250,150.000000,-0.261307,-0.230789,-0.310898,150.000000,16.049957,-27.150009,-100.800003,150.000000
1510.000000,-0.403320,0.138184,0.905273,151.000000,0.284195,0.253677,-0.127792,151.000000,16.649963,-25.200012,-102.900009,151.000000
1520.000000,-0.401367,0.132812,0.918457,152.000000,0.772476,0.131607,0.295639,152.000000,16.649963,-26.250000,-101.250000,152.000000
1530.000000,-0.414551,0.132812,0.903808,153.000000,0.040054,0.070572,-0.127792,153.000000,16.949966,-26.250000,-101.250000,153.000000
1540.000000,-0.422851,0.135742,0.902832,154.000000,-0.078201,0.253677,-0.249863,154.000000,16.199966,-25.500000,-100.650009,154.000000
1550.000000,-0.414551,0.142578,0.900390,155.000000,-0.261307,-0.352859,0.905991,155.000000,16.199966,-26.550003,-100.950012,155.000000
1560.000000,-0.419922,0.137695,0.904785,156.000000,0.284195,0.070572,0.417709,156.000000,16.349960,-26.550003,-100.950012,156.000000
1570.000000,-0.417969,0.142090,0.910156,157.000000,-0.444412,0.192642,0.051498,157.000000,15.749954,-25.200012,-100.800003,157.000000
1580.000000,-0.416016,0.136719,0.904785,158.000000,-0.078201,0.131607,0.051498,158.000000,15.749954,-25.650009,-102.150009,158.000000
1590.000000,-0.406738,0.134277,0.896484,159.000000,0.101089,-0.413895,0.600815,159.000000,16.799957,-25.650009,-102.150009,159.000000
1600.000000,-0.415039,0.131348,0.912597,160.000000,0.101089,-0.169754,0.173569,160.000000,15.899963,-25.650009,-101.100006,160.000000
1610.000000,-0.428711,0.143066,0.910644,161.000000,0.162125,0.131607,0.783920,161.000000,15.899963,-25.800003,-101.250000,161.000000
1620.000000,-0.416016,0.133301,0.907226,162.000000,0.040054,-0.108719,0.417709,162.000000,15.449966,-25.800003,-101.250000,162.000000
1630.000000,-0.402832,0.139160,0.901367,163.000000,0.284195,-0.230789,0.539780,163.000000,16.349960,-24.750000,-100.950012,163.000000
1640.000000,-0.415039,0.133301,0.897461,164.000000,0.101089,0.131607,0.051498,164.000000,16.349960,-25.200012,-100.800003,164.000000
1650.000000,-0.406738,0.132812,0.905761,165.000000,0.040054,-0.352859,-0.677109,165.000000,16.649963,-25.200012,-100.800003,165.000000
1660.000000,-0.404785,0.133789,0.902832,166.000000,0.284195,0.253677,-0.005722,166.000000,17.249954,-26.250000,-101.700012,166.000000
1670.000000,-0.405273,0.133301,0.909668,167.000000,0.467300,-0.230789,-0.188828,167.000000,16.199966,-26.250000,-101.700012,167.000000
1680.000000,-0.410644,0.127930,0.908691,168.000000,-0.322342,-0.413895,0.112534,168.000000,16.199966,-26.550003,-100.650009,168.000000
1690.000000,-0.402344,0.143066,0.915039,169.000000,0.345230,-0.169754,-0.127792,169.000000,16.199966,-26.550003,-100.650009,169.000000
1700.000000,-0.407226,0.133301,0.909668,170.000000,-0.078201,0.192642,0.417709,170.000000,17.249954,-25.800003,-99.600006,170.000000
1710.000000,-0.406250,0.139648,0.908691,171.000000,0.101089,0.009537,0.234604,171.000000,17.249954,-27.300003,-100.200012,171.000000
1720.000000,-0.412109,0.129883,0.909179,172.000000,-0.139236,0.558853,-0.066757,172.000000,16.799957,-27.300003,-100.200012,172.000000
1730.000000,-0.422363,0.130371,0.908691,173.000000,-0.078201,0.314713,0.051498,173.000000,16.799957,-24.900009,-102.150009,173.000000
1740.000000,-0.401367,0.129883,0.904297,174.000000,0.345230,0.192642,-0.494003,174.000000,16.349960,-24.900009,-102.150009,174.000000
1750.000000,-0.425293,0.130859,0.902832,175.000000,0.467300,-0.230789,0.051498,175.000000,17.099960,-25.950012,-101.550003,175.000000
1760.000000,-0.398926,0.134277,0.919922,176.000000,-0.017166,-0.108719,-0.310898,176.000000,17.099960,-26.700012,-101.550003,176.000000
1770.000000,-0.415527,0.143555,0.900879,177.000000,0.284195,0.314713,0.295639,177.000000,15.749954,-26.700012,-101.550003,177.000000
1780.000000,-0.411133,0.133301,0.902344,178.000000,-0.017166,-0.230789,-0.066757,178.000000,16.199966,-24.900009,-101.550003,178.000000
1790.000000,-0.415039,0.140137,0.897461,179.000000,0.467300,0.009537,-0.066757,179.000000,16.199966,-26.550003,-100.650009,179.000000
1800.000000,-0.405273,0.133789,0.910156,180.000000,0.528336,0.253677,-0.066757,180.000000,16.349960,-26.550003,-100.650009,180.000000
1810.000000,-0.411621,0.127441,0.914551,181.000000,0.101089,0.253677,-0.005722,181.000000,16.199966,-24.450012,-101.850006,181.000000
1820.000000,-0.416504,0.135254,0.921386,182.000000,0.589371,0.192642,-0.127792,182.000000,16.649963,-26.550003,-101.250000,182.000000
1830.000000,-0.416016,0.139160,0.901855,183.000000,-0.505447,0.741959,-0.371933,183.000000,16.649963,-26.550003,-101.250000,183.000000
1840.000000,-0.416992,0.134766,0.902832,184.000000,-0.017166,0.009537,-0.555038,184.000000,17.549957,-26.550003,-101.250000,184.000000
1850.000000,-0.401855,0.137207,0.911133,185.000000,0.101089,0.925064,-0.188828,185.000000,17.699966,-26.700012,-101.550003,185.000000
1860.000000,-0.397461,0.139160,0.904785,186.000000,0.467300,0.314713,0.234604,186.000000,17.699966,-25.800003,-100.950012,186.000000
1870.000000,-0.411621,0.142578,0.905273,187.000000,-0.627518,-0.658035,0.051498,187.000000,16.049957,-25.800003,-100.950012,187.000000
1880.000000,-0.407226,0.138184,0.913086,188.000000,-0.322342,0.009537,-0.555038,188.000000,16.049957,-26.700012,-100.800003,188.000000
1890.000000,-0.415039,0.144043,0.898926,189.000000,-0.078201,0.009537,0.600815,189.000000,16.049957,-26.700012,-101.100006,189.000000
1900.000000,-0.417480,0.137207,0.908203,190.000000,0.284195,-0.047684,0.112534,190.000000,16.649963,-26.700012,-101.100006,190.000000
1910.000000,-0.423340,0.137695,0.903320,191.000000,-0.078201,-0.169754,0.417709,191.000000,17.849960,-27.000000,-102.000000,191.000000
1920.000000,-0.408691,0.130859,0.904785,192.000000,-0.505447,0.131607,0.112534,192.000000,17.849960,-25.200012,-102.150009,192.000000
1930.000000,-0.412598,0.136719,0.906250,193.000000,-0.322342,-0.352859,0.173569,193.000000,15.899963,-25.200012,-102.150009,193.000000
1940.000000,-0.418457,0.130371,0.896972,194.000000,0.040054,0.375748,0.234604,194.000000,16.049957,-25.800003,-102.450012,194.000000
1950.000000,-0.409180,0.133301,0.904297,195.000000,0.040054,0.131607,0.478745,195.000000,16.049957,-25.950012,-101.100006,195.000000
1960.000000,-0.405273,0.134277,0.909668,196.000000,-0.749588,-0.169754,0.051498,196.000000,16.049957,-25.950012,-101.100006,196.000000
1970.000000,-0.407226,0.136230,0.908203,197.000000,-0.505447,-0.108719,0.051498,197.000000,16.199966,-26.400009,-101.100006,197.000000
1980.000000,-0.416992,0.139160,0.906250,198.000000,-0.322342,-0.047684,-0.066757,198.000000,15.449966,-27.300003,-101.250000,198.000000
1990.000000,-0.414551,0.143555,0.896972,199.000000,0.284195,-0.047684,-0.066757,199.000000,15.449966,-26.250000,-101.250000,199.000000
2000.000000,-0.415039,0.135254,0.901367,200.000000,-0.078201,0.375748,0.417709,200.000000,17.549957,-26.250000,-101.250000,200.000000
2010.000000,-0.416504,0.136230,0.903320,201.000000,-0.566483,0.375748,0.051498,201.000000,16.649963,-25.200012,-100.800003,201.000000
2020.000000,-0.410644,0.138672,0.901367,202.000000,-0.505447,-0.291824,-0.310898,202.000000,17.699966,-24.750000,-101.700012,202.000000
2030.000000,-0.412109,0.137207,0.904297,203.000000,-0.566483,0.070572,-0.310898,203.000000,16.349960,-26.550003,-100.200012,203.000000
2040.000000,-0.411133,0.135254,0.896484,204.000000,-0.200272,-0.169754,-0.127792,204.000000,16.349960,-27.450012,-101.550003,204.000000
2050.000000,-0.410156,0.129883,0.894531,205.000000,0.101089,-0.047684,0.234604,205.000000,15.149963,-27.450012,-101.550003,205.000000
2060.000000,-0.408691,0.126953,0.908691,206.000000,-0.078201,-0.230789,0.112534,206.000000,17.849960,-25.050003,-101.250000,206.000000
2070.000000,-0.408203,0.130371,0.901367,207.000000,0.223160,0.070572,0.112534,207.000000,17.849960,-25.950012,-101.550003,207.000000
2080.000000,-0.401367,0.129395,0.915527,208.000000,-0.261307,0.131607,0.783920,208.000000,16.199966,-25.950012,-101.550003,208.000000
2090.000000,-0.401855,0.143066,0.906250,209.000000,-0.017166,0.070572,-0.310898,209.000000,16.349960,-25.050003,-102.000000,209.000000
2100.000000,-0.416016,0.135254,0.901367,210.000000,-0.261307,0.497818,0.356674,210.000000,16.349960,-25.650009,-102.600006,210.000000
2110.000000,-0.403320,0.136230,0.909668,211.000000,-0.078201,0.131607,0.051498,211.000000,17.099960,-25.650009,-102.600006,211.000000
2120.000000,-0.403809,0.128418,0.904785,212.000000,0.223160,0.436783,0.356674,212.000000,16.349960,-27.450012,-100.800003,212.000000
2130.000000,-0.426758,0.134766,0.905273,213.000000,0.711441,0.192642,-0.188828,213.000000,16.349960,-25.200012,-101.550003,213.000000
2140.000000,-0.421875,0.127441,0.903320,214.000000,0.406265,0.436783,-0.188828,214.000000,16.349960,-25.650009,-101.100006,214.000000
2150.000000,-0.411133,0.133301,0.903808,215.000000,0.406265,-0.047684,-0.066757,215.000000,16.199966,-25.650009,-101.100006,215.000000
2160.000000,-0.423828,0.138672,0.908691,216.000000,0.162125,-0.108719,0.112534,216.000000,16.199966,-26.250000,-102.450012,216.000000
2170.000000,-0.406738,0.128418,0.914062,217.000000,-0.322342,-0.413895,-0.249863,217.000000,16.199966,-25.800003,-100.950012,217.000000
2180.000000,-0.420898,0.136719,0.894531,218.000000,0.162125,-0.263214,-0.297546,218.000000,15.749954,-25.800003,-100.950012,218.000000
2190.000000,-0.418457,0.139160,0.909668,219.000000,-0.017166,-0.568390,0.247955,219.000000,14.999954,-25.650009,-101.100006,219.000000
2200.000000,-0.407226,0.137695,0.902344,220.000000,-0.078201,-0.141144,0.064850,220.000000,14.999954,-24.150009,-101.850006,220.000000
2210.000000,-0.424805,0.130371,0.906250,221.000000,-0.017166,0.221252,0.675201,221.000000,16.349960,-24.150009,-101.850006,221.000000
2220.000000,-0.424805,0.134277,0.910156,222.000000,-0.261307,0.709534,-0.358582,222.000000,17.699966,-27.150009,-102.150009,222.000000
2230.000000,-0.415039,0.147949,0.892090,223.000000,-0.200272,-0.019073,0.247955,223.000000,17.699966,-25.500000,-101.250000,223.000000
2240.000000,-0.423340,0.137207,0.900879,224.000000,0.345230,-0.446320,-0.114441,224.000000,15.899963,-25.500000,-101.250000,224.000000
2250.000000,-0.414062,0.141113,0.914062,225.000000,0.467300,0.038147,0.797272,225.000000,16.949966,-25.500000,-101.250000,225.000000
2260.000000,-0.419434,0.125000,0.895508,226.000000,0.406265,-0.080109,0.064850,226.000000,16.949966,-26.550003,-101.250000,226.000000
2270.000000,-0.414551,0.122559,0.901855,227.000000,0.040054,0.099182,-0.541687,227.000000,16.949966,-26.550003,-101.250000,227.000000
2280.000000,-0.409668,0.144043,0.902344,228.000000,-0.200272,-0.202179,0.308990,228.000000,17.699966,-26.550003,-102.750000,228.000000
2290.000000,-0.411621,0.133301,0.905761,229.000000,-0.200272,0.282288,0.003815,229.000000,17.099960,-26.550003,-102.450012,229.000000
2300.000000,-0.409668,0.131348,0.900390,230.000000,-0.322342,0.343323,0.553131,230.000000,17.099960,-27.450012,-100.800003,230.000000
2310.000000,-0.410156,0.141602,0.899902,231.000000,0.406265,0.099182,0.370026,231.000000,15.899963,-27.450012,-100.800003,231.000000
2320.000000,-0.405273,0.124023,0.902832,232.000000,0.345230,0.587463,0.064850,232.000000,16.799957,-25.050003,-102.450012,232.000000
2330.000000,-0.435059,0.139648,0.913086,233.000000,-0.017166,-0.080109,0.308990,233.000000,16.349960,-25.650009,-101.100006,233.000000
2340.000000,-0.421387,0.131348,0.900390,234.000000,0.101089,-0.202179,0.125885,234.000000,15.899963,-25.950012,-101.100006,234.000000
2350.000000,-0.421875,0.128906,0.917969,235.000000,-0.627518,-0.019073,0.247955,235.000000,15.899963,-25.800003,-100.950012,235.000000
2360.000000,-0.402344,0.133789,0.904785,236.000000,-0.688553,-0.385284,-0.053406,236.000000,17.699966,-25.800003,-100.950012,236.000000
2370.000000,-0.417969,0.137207,0.901367,237.000000,-0.383377,0.221252,0.431061,237.000000,17.099960,-25.050003,-101.250000,237.000000
2380.000000,-0.425293,0.146973,0.917969,238.000000,0.101089,0.099182,0.186920,238.000000,17.099960,-25.650009,-101.550003,238.000000
2390.000000,-0.414062,0.143555,0.909179,239.000000,0.162125,-0.263214,-0.297546,239.000000,17.549957,-25.650009,-101.550003,239.000000
2400.000000,-0.416992,0.135742,0.906250,240.000000,-0.017166,0.221252,0.736237,240.000000,16.649963,-27.450012,-102.600006,240.000000
2410.000000,-0.410644,0.142090,0.925781,241.000000,0.040054,-0.019073,0.370026,241.000000,16.649963,-25.500000,-101.700012,241.000000
2420.000000,-0.425293,0.130371,0.907715,242.000000,0.467300,-0.263214,0.003815,242.000000,17.099960,-25.500000,-101.700012,242.000000
2430.000000,-0.412598,0.141602,0.896484,243.000000,0.284195,0.343323,0.125885,243.000000,16.799957,-25.200012,-100.800003,243.000000
2440.000000,-0.411621,0.145020,0.905273,244.000000,0.589371,-0.080109,-0.175476,244.000000,16.199966,-26.400009,-101.550003,244.000000
2450.000000,-0.425293,0.138672,0.895508,245.000000,-0.078201,-0.263214,-0.297546,245.000000,16.199966,-25.800003,-102.000000,245.000000
2460.000000,-0.408691,0.141113,0.881836,246.000000,0.223160,-0.385284,0.308990,246.000000,15.899963,-25.800003,-102.000000,246.000000
2470.000000,-0.401855,0.129395,0.901367,247.000000,-0.444412,-0.019073,-0.358582,247.000000,17.099960,-26.250000,-102.000000,247.000000
2480.000000,-0.410156,0.125000,0.903320,248.000000,0.040054,-0.202179,0.370026,248.000000,17.099960,-26.400009,-100.800003,248.000000
2490.000000,-0.409180,0.130859,0.900390,249.000000,-0.322342,0.343323,-0.297546,249.000000,15.749954,-26.400009,-100.800003,249.000000
2500.000000,-0.406738,0.134277,0.905273,250.000000,-0.139236,0.221252,-0.297546,250.000000,16.649963,-25.200012,-102.150009,250.000000
2510.000000,-0.408691,0.138672,0.914551,251.000000,-0.200272,0.221252,-0.175476,251.000000,16.649963,-26.250000,-101.250000,251.000000
2520.000000,-0.395508,0.125977,0.913086,252.000000,-0.261307,0.160217,-0.297546,252.000000,16.799957,-26.250000,-101.250000,252.000000
2530.000000,-0.419434,0.139160,0.897949,253.000000,0.894547,0.221252,-0.053406,253.000000,16.799957,-26.400009,-100.500000,253.000000
2540.000000,-0.414551,0.129395,0.899902,254.000000,0.345230,0.160217,-0.236511,254.000000,16.799957,-26.400009,-101.850006,254.000000
2550.000000,-0.408691,0.128906,0.912109,255.000000,-0.078201,0.221252,-0.114441,255.000000,17.699966,-26.400009,-101.850006,255.000000
2560.000000,-0.406250,0.138184,0.902832,256.000000,-0.017166,0.038147,-0.663757,256.000000,15.899963,-25.800003,-102.750000,256.000000
2570.000000,-0.421387,0.130859,0.897461,257.000000,0.040054,0.282288,-0.114441,257.000000,15.899963,-25.800003,-102.450012,257.000000
2580.000000,-0.416016,0.136719,0.907715,258.000000,0.040054,0.099182,0.370026,258.000000,15.899963,-25.800003,-102.450012,258.000000
2590.000000,-0.420898,0.138672,0.909179,259.000000,-0.261307,-0.263214,0.553131,259.000000,16.649963,-25.800003,-102.000000,259.000000
2600.000000,-0.409180,0.139160,0.901855,260.000000,0.284195,-0.202179,0.308990,260.000000,16.649963,-27.300003,-99.150009,260.000000
2610.000000,-0.418457,0.115723,0.903808,261.000000,0.162125,-0.324249,0.492096,261.000000,17.849960,-27.300003,-99.150009,261.000000
2620.000000,-0.424316,0.151855,0.910156,262.000000,0.101089,-0.324249,0.492096,262.000000,17.099960,-24.450012,-101.850006,262.000000
2630.000000,-0.402832,0.134277,0.904297,263.000000,0.040054,-0.263214,0.308990,263.000000,17.099960,-26.400009,-102.150009,263.000000
2640.000000,-0.408203,0.138672,0.907226,264.000000,0.040054,-0.629425,0.247955,264.000000,16.949966,-26.400009,-102.150009,264.000000
2650.000000,-0.410644,0.136230,0.902832,265.000000,-0.200272,0.099182,-0.236511,265.000000,16.349960,-24.300003,-102.000000,265.000000
2660.000000,-0.406738,0.130859,0.907715,266.000000,-0.078201,0.587463,-0.236511,266.000000,16.349960,-25.950012,-101.550003,266.000000
2670.000000,-0.412109,0.130371,0.906250,267.000000,0.650406,0.038147,-0.358582,267.000000,15.749954,-25.950012,-101.550003,267.000000
2680.000000,-0.416016,0.127441,0.921875,268.000000,0.284195,-0.019073,-0.114441,268.000000,15.899963,-25.950012,-101.550003,268.000000
2690.000000,-0.409668,0.129395,0.910644,269.000000,0.955582,0.343323,0.431061,269.000000,15.899963,-26.250000,-101.700012,269.000000
2700.000000,-0.412109,0.130859,0.908203,270.000000,0.284195,0.160217,0.308990,270.000000,15.749954,-26.250000,-101.700012,270.000000
2710.000000,-0.395508,0.137207,0.910156,271.000000,-0.261307,-0.080109,0.064850,271.000000,15.899963,-24.450012,-101.550003,271.000000
2720.000000,-0.421387,0.139648,0.903320,272.000000,-0.078201,0.465393,0.736237,272.000000,15.899963,-26.250000,-101.250000,272.000000
2730.000000,-0.402344,0.128418,0.901855,273.000000,-0.139236,0.160217,0.370026,273.000000,17.849960,-26.250000,-101.250000,273.000000
2740.000000,-0.407226,0.124512,0.914062,274.000000,0.101089,0.770569,-0.297546,274.000000,16.349960,-26.700012,-101.100006,274.000000
2750.000000,-0.401855,0.115723,0.901367,275.000000,-0.627518,0.099182,-0.419617,275.000000,17.099960,-26.400009,-100.800003,275.000000
2760.000000,-0.406738,0.143066,0.908691,276.000000,0.528336,-0.141144,-0.053406,276.000000,17.099960,-25.650009,-100.800003,276.000000
2770.000000,-0.411621,0.133301,0.909179,277.000000,0.589371,0.221252,0.247955,277.000000,16.649963,-25.650009,-100.800003,277.000000
2780.000000,-0.410156,0.131836,0.905761,278.000000,0.711441,0.343323,0.247955,278.000000,16.199966,-27.000000,-100.650009,278.000000
2790.000000,-0.411621,0.140625,0.898926,279.000000,0.528336,0.038147,-0.053406,279.000000,16.199966,-25.500000,-101.250000,279.000000
2800.000000,-0.400391,0.139648,0.904297,280.000000,0.345230,0.282288,-0.053406,280.000000,16.199966,-25.500000,-101.250000,280.000000
2810.000000,-0.414551,0.129395,0.897461,281.000000,0.650406,0.160217,0.064850,281.000000,15.899963,-25.800003,-101.700012,281.000000
2820.000000,-0.414551,0.132324,0.906250,282.000000,-0.078201,0.404358,0.003815,282.000000,15.899963,-25.050003,-100.650009,282.000000
2830.000000,-0.419922,0.140137,0.895019,283.000000,0.223160,0.282288,-0.175476,283.000000,17.549957,-25.050003,-100.650009,283.000000
2840.000000,-0.415527,0.135254,0.905273,284.000000,-0.078201,0.587463,-0.236511,284.000000,16.199966,-26.400009,-103.650009,284.000000
2850.000000,-0.426269,0.127930,0.892578,285.000000,-0.200272,0.465393,-0.175476,285.000000,16.199966,-25.500000,-100.650009,285.000000
2860.000000,-0.406738,0.132324,0.905761,286.000000,0.162125,0.221252,0.186920,286.000000,16.649963,-25.500000,-100.650009,286.000000
2870.000000,-0.411133,0.139648,0.899902,287.000000,0.162125,0.221252,0.003815,287.000000,17.699966,-25.050003,-101.700012,287.000000
2880.000000,-0.413086,0.144043,0.919922,288.000000,0.040054,0.160217,-0.419617,288.000000,17.699966,-24.750000,-101.700012,288.000000
2890.000000,-0.399414,0.141602,0.900390,289.000000,0.162125,0.465393,0.125885,289.000000,18.149963,-24.750000,-101.700012,289.000000
2900.000000,-0.418457,0.139160,0.911133,290.000000,-0.139236,0.343323,0.064850,290.000000,16.949966,-25.650009,-100.500000,290.000000
2910.000000,-0.414062,0.137695,0.899902,291.000000,0.040054,-0.019073,0.003815,291.000000,17.099960,-25.500000,-101.700012,291.000000
2920.000000,-0.421875,0.142578,0.912597,292.000000,-0.444412,-0.263214,0.003815,292.000000,17.099960,-25.950012,-101.100006,292.000000
2930.000000,-0.417969,0.134277,0.892578,293.000000,-0.078201,0.526428,0.308990,293.000000,16.649963,-25.950012,-101.100006,293.000000
2940.000000,-0.412109,0.129395,0.893554,294.000000,-0.444412,-0.385284,-0.053406,294.000000,16.649963,-25.050003,-100.200012,294.000000
2950.000000,-0.415039,0.127441,0.902832,295.000000,-0.322342,0.465393,-0.236511,295.000000,15.149963,-25.050003,-100.200012,295.000000
2960.000000,-0.416016,0.134766,0.894531,296.000000,-0.566483,-0.080109,0.186920,296.000000,16.949966,-27.000000,-101.250000,296.000000
2970.000000,-0.397461,0.129883,0.901367,297.000000,-0.383377,0.404358,0.186920,297.000000,16.949966,-26.550003,-100.950012,297.000000
2980.000000,-0.422851,0.141113,0.912109,298.000000,0.223160,0.343323,0.431061,298.000000,16.199966,-26.550003,-100.950012,298.000000
2990.000000,-0.409668,0.130859,0.900879,299.000000,0.223160,-0.019073,0.064850,299.000000,16.199966,-27.750000,-101.700012,299.000000
3000.000000,-0.418945,0.135742,0.902832,300.000000,-0.200272,-0.080109,0.064850,300.000000,16.199966,-26.550003,-100.650009,300.000000
3010.000000,-0.416992,0.157227,0.910156,301.000000,0.223160,-0.202179,0.431061,301.000000,16.349960,-26.550003,-100.650009,301.000000
3020.000000,-0.427246,0.136230,0.912597,302.000000,-0.139236,-0.324249,0.370026,302.000000,17.099960,-25.950012,-101.550003,302.000000
3030.000000,-0.412109,0.141602,0.906250,303.000000,-0.139236,-0.080109,0.431061,303.000000,17.099960,-25.650009,-100.800003,303.000000
3040.000000,-0.407226,0.134766,0.900879,304.000000,0.101089,-0.080109,0.064850,304.000000,16.349960,-25.650009,-100.800003,304.000000
3050.000000,-0.410644,0.134277,0.908691,305.000000,0.101089,0.404358,0.308990,305.000000,16.349960,-26.400009,-100.050003,305.000000
3060.000000,-0.425293,0.152832,0.908203,306.000000,-0.139236,-0.141144,-0.114441,306.000000,16.349960,-25.950012,-101.550003,306.000000
3070.000000,-0.410156,0.129395,0.906738,307.000000,-0.017166,0.526428,0.125885,307.000000,16.349960,-27.450012,-101.550003,307.000000
3080.000000,-0.407715,0.127441,0.893554,308.000000,-0.078201,-0.141144,-0.175476,308.000000,15.449966,-27.450012,-101.550003,308.000000
3090.000000,-0.408691,0.139160,0.915039,309.000000,-0.261307,-0.080109,-0.358582,309.000000,16.949966,-26.550003,-102.450012,309.000000
3100.000000,-0.400391,0.142090,0.906738,310.000000,-0.383377,0.953674,-0.236511,310.000000,16.949966,-26.550003,-100.950012,310.000000
3110.000000,-0.412109,0.132324,0.895508,311.000000,0.284195,0.221252,-0.419617,311.000000,16.349960,-26.550003,-100.950012,311.000000
3120.000000,-0.404297,0.145508,0.897461,312.000000,-0.139236,-0.019073,-0.114441,312.000000,16.649963,-26.400009,-100.050003,312.000000
3130.000000,-0.410156,0.123535,0.901367,313.000000,0.223160,0.099182,0.125885,313.000000,16.649963,-25.050003,-102.750000,313.000000
3140.000000,-0.399902,0.135742,0.897461,314.000000,0.040054,0.465393,-0.724792,314.000000,17.249954,-25.050003,-102.750000,314.000000
3150.000000,-0.406250,0.134277,0.907715,315.000000,0.345230,0.404358,-0.175476,315.000000,17.099960,-25.500000,-102.000000,315.000000
3160.000000,-0.412109,0.132324,0.894531,316.000000,0.040054,-0.385284,-0.114441,316.000000,17.099960,-25.950012,-103.650009,316.000000
3170.000000,-0.424805,0.139160,0.906738,317.000000,0.406265,0.221252,-0.236511,317.000000,16.199966,-25.950012,-103.650009,317.000000
3180.000000,-0.408203,0.137207,0.907715,318.000000,-0.017166,0.282288,0.064850,318.000000,16.799957,-25.500000,-100.950012,318.000000
3190.000000,-0.412598,0.127930,0.895019,319.000000,-0.139236,-0.141144,0.858307,319.000000,16.799957,-26.400009,-101.550003,319.000000
3200.000000,-0.423340,0.144043,0.901855,320.000000,-0.261307,-0.263214,0.125885,320.000000,15.299957,-26.400009,-101.550003,320.000000
3210.000000,-0.414551,0.127441,0.887695,321.000000,-0.078201,0.526428,-0.236511,321.000000,17.549957,-25.200012,-101.850006,321.000000
3220.000000,-0.409668,0.141602,0.897949,322.000000,0.101089,-0.141144,-0.053406,322.000000,16.799957,-26.400009,-101.550003,322.000000
3230.000000,-0.410644,0.139160,0.904785,323.000000,-0.078201,0.587463,0.125885,323.000000,16.799957,-26.400009,-100.800003,323.000000
3240.000000,-0.405273,0.127441,0.909179,324.000000,0.284195,0.160217,0.186920,324.000000,16.049957,-24.900009,-101.550003,324.000000
3250.000000,-0.413574,0.134277,0.913086,325.000000,0.284195,0.587463,-0.297546,325.000000,16.049957,-25.650009,-100.800003,325.000000
3260.000000,-0.411133,0.134277,0.898437,326.000000,0.040054,-0.019073,-0.175476,326.000000,17.249954,-25.650009,-100.800003,326.000000
3270.000000,-0.408691,0.135742,0.908691,327.000000,0.772476,-0.019073,-0.785828,327.000000,16.199966,-25.800003,-101.250000,327.000000
3280.000000,-0.409180,0.130859,0.896972,328.000000,0.040054,0.160217,-0.480652,328.000000,16.199966,-26.250000,-101.250000,328.000000
3290.000000,-0.415039,0.129395,0.903808,329.000000,0.223160,0.038147,-0.541687,329.000000,16.649963,-26.250000,-101.250000,329.000000
3300.000000,-0.410644,0.137207,0.903808,330.000000,0.589371,0.465393,-0.297546,330.000000,17.549957,-25.500000,-101.250000,330.000000
3310.000000,-0.426269,0.131348,0.910156,331.000000,0.162125,0.221252,-0.053406,331.000000,17.549957,-26.700012,-101.100006,331.000000
3320.000000,-0.401367,0.129395,0.909668,332.000000,-0.444412,-0.751495,-0.480652,332.000000,16.199966,-26.700012,-101.100006,332.000000
3330.000000,-0.414551,0.133789,0.904297,333.000000,-0.566483,-0.141144,0.125885,333.000000,17.249954,-25.050003,-101.700012,333.000000
3340.000000,-0.416992,0.130371,0.914062,334.000000,-0.139236,0.099182,-0.419617,334.000000,17.249954,-24.750000,-101.250000,334.000000
3350.000000,-0.399414,0.129395,0.902832,335.000000,0.345230,-0.080109,0.370026,335.000000,14.849960,-24.750000,-101.250000,335.000000
3360.000000,-0.415039,0.132812,0.900390,336.000000,0.284195,0.160217,0.553131,336.000000,16.049957,-26.550003,-100.950012,336.000000
3370.000000,-0.411621,0.139648,0.903808,337.000000,0.101089,-0.507355,0.125885,337.000000,17.549957,-24.900009,-101.550003,337.000000
3380.000000,-0.408691,0.126465,0.909179,338.000000,-0.383377,0.587463,-0.480652,338.000000,17.549957,-25.950012,-100.500000,338.000000
3390.000000,-0.407715,0.134277,0.896972,339.000000,0.223160,0.221252,-0.541687,339.000000,16.199966,-25.950012,-100.500000,339.000000
3400.000000,-0.405762,0.137207,0.907226,340.000000,0.040054,0.221252,0.370026,340.000000,15.749954,-25.800003,-101.700012,340.000000
3410.000000,-0.409180,0.128418,0.910644,341.000000,-0.078201,0.038147,0.308990,341.000000,15.749954,-25.950012,-101.550003,341.000000
3420.000000,-0.423340,0.148437,0.912597,342.000000,-0.261307,-0.385284,0.308990,342.000000,15.449966,-25.950012,-101.550003,342.000000
3430.000000,-0.419434,0.149902,0.907226,343.000000,-0.444412,-0.324249,-0.480652,343.000000,17.699966,-25.500000,-101.700012,343.000000
3440.000000,-0.415527,0.139648,0.902344,344.000000,0.528336,-0.141144,0.125885,344.000000,17.699966,-25.050003,-100.650009,344.000000
3450.000000,-0.416504,0.137207,0.910644,345.000000,-0.078201,0.160217,0.064850,345.000000,16.799957,-25.050003,-100.650009,345.000000
3460.000000,-0.426269,0.137207,0.897461,346.000000,-0.383377,-0.080109,0.553131,346.000000,16.799957,-25.650009,-99.750000,346.000000
3470.000000,-0.413086,0.129395,0.905761,347.000000,0.284195,-0.202179,-0.053406,347.000000,16.799957,-25.950012,-100.800003,347.000000
3480.000000,-0.410644,0.135254,0.910156,348.000000,-0.200272,-0.019073,0.003815,348.000000,16.349960,-25.950012,-100.800003,348.000000
3490.000000,-0.413086,0.132812,0.896972,349.000000,-0.017166,0.099182,-0.541687,349.000000,16.349960,-25.650009,-100.500000,349.000000
3500.000000,-0.418457,0.121094,0.909179,350.000000,0.040054,0.404358,-0.480652,350.000000,16.349960,-25.200012,-101.100006,350.000000
3510.000000,-0.414551,0.143555,0.909179,351.000000,0.711441,0.648499,-0.236511,351.000000,15.299957,-25.200012,-101.100006,351.000000
3520.000000,-0.410644,0.129883,0.894043,352.000000,0.345230,0.038147,-0.236511,352.000000,16.199966,-25.650009,-101.100006,352.000000
3530.000000,-0.418457,0.126953,0.914551,353.000000,0.772476,0.099182,0.125885,353.000000,16.199966,-26.550003,-102.000000,353.000000
3540.000000,-0.418457,0.136719,0.902832,354.000000,-0.566483,0.160217,0.247955,354.000000,16.199966,-26.550003,-102.000000,354.000000
3550.000000,-0.405762,0.133789,0.903808,355.000000,-0.383377,0.038147,0.247955,355.000000,16.949966,-26.250000,-101.250000,355.000000
3560.000000,-0.417480,0.129883,0.900879,356.000000,-0.688553,0.221252,0.431061,356.000000,16.949966,-25.800003,-100.200012,356.000000
3570.000000,-0.429687,0.123535,0.898926,357.000000,-0.261307,0.160217,0.003815,357.000000,17.699966,-25.800003,-100.200012,357.000000
3580.000000,-0.422851,0.138672,0.905761,358.000000,0.040054,0.160217,0.003815,358.000000,16.649963,-26.250000,-100.650009,358.000000
3590.000000,-0.409180,0.127930,0.905761,359.000000,0.162125,-0.446320,0.919342,359.000000,16.649963,-26.250000,-100.200012,359.000000
3600.000000,-0.417480,0.135254,0.908203,360.000000,0.467300,-0.446320,0.980377,360.000000,17.249954,-26.250000,-100.200012,360.000000
3610.000000,-0.411621,0.144531,0.899902,361.000000,0.467300,-0.812531,0.308990,361.000000,16.799957,-25.800003,-101.700012,361.000000
3620.000000,-0.404785,0.127441,0.910644,362.000000,0.589371,-1.056671,0.370026,362.000000,16.799957,-24.900009,-101.850006,362.000000
3630.000000,-0.411133,0.130859,0.907226,363.000000,0.040054,-0.385284,-0.358582,363.000000,16.349960,-24.900009,-101.850006,363.000000
3640.000000,-0.407715,0.132324,0.895508,364.000000,0.528336,-0.263214,0.247955,364.000000,16.049957,-25.950012,-101.100006,364.000000
3650.000000,-0.416504,0.133301,0.906738,365.000000,0.528336,-0.202179,0.064850,365.000000,16.049957,-24.900009,-100.800003,365.000000
3660.000000,-0.390625,0.141113,0.903808,366.000000,0.589371,0.465393,-0.114441,366.000000,16.349960,-24.900009,-100.800003,366.000000
3670.000000,-0.408203,0.146973,0.900390,367.000000,-0.017166,0.587463,-0.053406,367.000000,15.749954,-26.400009,-100.800003,367.000000
3680.000000,-0.406738,0.128906,0.892578,368.000000,-0.566483,-0.263214,0.675201,368.000000,16.349960,-24.450012,-100.800003,368.000000
3690.000000,-0.413086,0.144531,0.904785,369.000000,0.040054,-0.080109,0.186920,369.000000,16.349960,-25.650009,-102.150009,369.000000
3700.000000,-0.414551,0.137207,0.906738,370.000000,-0.017166,0.465393,0.614166,370.000000,16.949966,-25.650009,-102.150009,370.000000
3710.000000,-0.413574,0.130859,0.903808,371.000000,0.040054,-0.385284,0.064850,371.000000,16.649963,-26.250000,-100.950012,371.000000
3720.000000,-0.401367,0.130859,0.894043,372.000000,-0.444412,0.160217,0.186920,372.000000,16.649963,-25.050003,-101.250000,372.000000
3730.000000,-0.403320,0.127930,0.896484,373.000000,-0.383377,0.282288,0.308990,373.000000,17.999954,-25.050003,-101.250000,373.000000
3740.000000,-0.421387,0.130371,0.899414,374.000000,0.040054,-0.080109,-0.602722,374.000000,15.749954,-26.550003,-101.250000,374.000000
3750.000000,-0.420898,0.133789,0.904785,375.000000,0.101089,-0.141144,0.186920,375.000000,15.749954,-25.200012,-101.100006,375.000000
3760.000000,-0.414062,0.124023,0.904785,376.000000,0.223160,-0.202179,-0.053406,376.000000,14.849960,-25.200012,-101.100006,376.000000
3770.000000,-0.422363,0.134766,0.908691,377.000000,0.650406,-0.263214,0.064850,377.000000,16.049957,-25.500000,-102.450012,377.000000
3780.000000,-0.406738,0.141602,0.901367,378.000000,-0.017166,0.343323,-0.663757,378.000000,16.049957,-25.200012,-101.550003,378.000000
3790.000000,-0.410156,0.136230,0.904297,379.000000,0.223160,0.038147,0.308990,379.000000,17.249954,-25.200012,-101.550003,379.000000
3800.000000,-0.407715,0.130371,0.897461,380.000000,0.284195,0.038147,0.125885,380.000000,16.649963,-26.550003,-101.250000,380.000000
3810.000000,-0.395996,0.130371,0.904785,381.000000,0.162125,-0.080109,-0.236511,381.000000,16.649963,-26.550003,-100.950012,381.000000
3820.000000,-0.414551,0.134766,0.896972,382.000000,-0.200272,0.282288,0.125885,382.000000,15.449966,-26.550003,-100.950012,382.000000
3830.000000,-0.398437,0.125000,0.892090,383.000000,-0.200272,0.038147,0.186920,383.000000,16.799957,-25.800003,-101.700012,383.000000
3840.000000,-0.420898,0.132324,0.897461,384.000000,-0.017166,0.221252,-0.297546,384.000000,16.349960,-25.650009,-101.550003,384.000000
3850.000000,-0.416016,0.139160,0.914062,385.000000,-0.322342,0.282288,-0.602722,385.000000,16.349960,-25.200012,-100.050003,385.000000
3860.000000,-0.416504,0.134277,0.902832,386.000000,0.040054,0.038147,-0.663757,386.000000,17.099960,-25.200012,-100.050003,386.000000
3870.000000,-0.420410,0.132812,0.907226,387.000000,0.467300,-0.019073,-0.175476,387.000000,16.199966,-25.200012,-100.500000,387.000000
3880.000000,-0.425293,0.134766,0.907715,388.000000,0.711441,0.038147,-0.358582,388.000000,16.199966,-25.800003,-100.950012,388.000000
3890.000000,-0.399902,0.123535,0.898926,389.000000,-0.017166,-0.141144,-0.053406,389.000000,16.649963,-25.800003,-100.950012,389.000000
3900.000000,-0.404785,0.126953,0.902832,390.000000,0.162125,0.038147,0.064850,390.000000,16.799957,-26.250000,-101.250000,390.000000
3910.000000,-0.419434,0.143066,0.895508,391.000000,0.406265,-0.019073,-0.419617,391.000000,16.799957,-25.200012,-101.850006,391.000000
3920.000000,-0.412598,0.129395,0.914551,392.000000,-0.261307,0.404358,0.431061,392.000000,16.049957,-25.200012,-101.850006,392.000000
3930.000000,-0.409668,0.121582,0.906250,393.000000,-0.078201,-0.141144,0.003815,393.000000,16.199966,-25.950012,-102.600006,393.000000
3940.000000,-0.423828,0.143066,0.899902,394.000000,-0.566483,0.526428,-0.053406,394.000000,16.199966,-25.050003,-102.000000,394.000000
3950.000000,-0.410644,0.132324,0.906738,395.000000,0.101089,0.404358,-0.175476,395.000000,15.749954,-25.050003,-102.000000,395.000000
3960.000000,-0.402344,0.134766,0.906250,396.000000,0.162125,0.343323,0.186920,396.000000,16.949966,-25.650009,-100.500000,396.000000
3970.000000,-0.419922,0.141113,0.897949,397.000000,-0.261307,-0.019073,0.370026,397.000000,17.549957,-25.800003,-102.450012,397.000000
3980.000000,-0.417969,0.141602,0.896484,398.000000,0.467300,-0.019073,0.125885,398.000000,17.099960,-26.700012,-102.150009,398.000000
3990.000000,-0.409668,0.135254,0.907226,399.000000,0.040054,0.343323,0.431061,399.000000,15.449966,-26.400009,-100.800003,399.000000
4000.000000,-0.420410,0.144531,0.908203,400.000000,-0.017166,0.221252,0.064850,400.000000,15.449966,-23.250000,-100.650009,400.000000
4010.000000,-0.408203,0.133301,0.904297,401.000000,-0.200272,0.038147,0.125885,401.000000,16.949966,-23.250000,-100.650009,401.000000
4020.000000,-0.420898,0.147949,0.903808,402.000000,0.528336,0.282288,0.003815,402.000000,17.249954,-25.050003,-100.950012,402.000000
4030.000000,-0.401367,0.138672,0.905761,403.000000,-0.444412,0.221252,0.614166,403.000000,17.249954,-26.550003,-100.950012,403.000000
4040.000000,-0.414062,0.140137,0.894043,404.000000,-0.078201,-0.080109,0.247955,404.000000,16.799957,-26.550003,-100.950012,404.000000
4050.000000,-0.414062,0.128906,0.915527,405.000000,-0.139236,0.221252,-0.053406,405.000000,15.449966,-24.900009,-101.550003,405.000000
4060.000000,-0.409180,0.132324,0.891601,406.000000,0.162125,-0.385284,0.247955,406.000000,15.449966,-25.050003,-101.250000,406.000000
4070.000000,-0.415039,0.130859,0.897461,407.000000,-0.017166,-0.019073,0.064850,407.000000,15.749954,-25.050003,-101.250000,407.000000
4080.000000,-0.418945,0.125977,0.903808,408.000000,-0.139236,-0.263214,-0.419617,408.000000,16.199966,-26.700012,-100.800003,408.000000
4090.000000,-0.416504,0.140625,0.905761,409.000000,0.406265,-0.141144,0.308990,409.000000,16.199966,-26.550003,-100.950012,409.000000
4100.000000,-0.421387,0.131348,0.910644,410.000000,0.284195,-0.263214,0.003815,410.000000,16.199966,-26.550003,-100.950012,410.000000
4110.000000,-0.410644,0.133789,0.903808,411.000000,-0.444412,0.404358,0.186920,411.000000,16.799957,-25.800003,-101.700012,411.000000
4120.000000,-0.411133,0.130371,0.897461,412.000000,-0.139236,0.404358,0.431061,412.000000,16.799957,-24.450012,-101.100006,412.000000
4130.000000,-0.414062,0.132324,0.900879,413.000000,0.101089,0.526428,-0.114441,413.000000,17.099960,-24.450012,-101.100006,413.000000
4140.000000,-0.417480,0.133789,0.907226,414.000000,0.162125,0.343323,-0.053406,414.000000,14.999954,-26.400009,-101.850006,414.000000
4150.000000,-0.418457,0.144043,0.897461,415.000000,0.589371,0.221252,-0.358582,415.000000,16.349960,-25.950012,-101.100006,415.000000
4160.000000,-0.413086,0.144531,0.905273,416.000000,-0.200272,0.526428,0.064850,416.000000,16.349960,-24.450012,-100.500000,416.000000
4170.000000,-0.415039,0.150391,0.899414,417.000000,0.284195,0.160217,-0.297546,417.000000,15.899963,-24.450012,-100.500000,417.000000
4180.000000,-0.411621,0.133301,0.922851,418.000000,0.162125,-0.080109,-0.053406,418.000000,16.349960,-25.500000,-102.450012,418.000000
4190.000000,-0.413086,0.133789,0.906250,419.000000,0.284195,-0.263214,-0.419617,419.000000,16.349960,-24.450012,-100.500000,419.000000
4200.000000,-0.415039,0.137207,0.895019,420.000000,0.101089,0.099182,0.064850,420.000000,15.899963,-24.450012,-100.500000,420.000000
4210.000000,-0.416016,0.139160,0.898437,421.000000,0.162125,0.160217,-0.175476,421.000000,16.949966,-25.800003,-100.200012,421.000000
4220.000000,-0.421387,0.135254,0.899414,422.000000,-0.139236,-0.263214,-0.419617,422.000000,16.949966,-26.550003,-101.250000,422.000000
4230.000000,-0.412598,0.123047,0.894531,423.000000,0.467300,-0.019073,-0.053406,423.000000,16.049957,-26.550003,-101.250000,423.000000
4240.000000,-0.413574,0.120117,0.903808,424.000000,0.162125,0.099182,-0.114441,424.000000,16.199966,-25.650009,-102.900009,424.000000
4250.000000,-0.415039,0.129883,0.900879,425.000000,-0.017166,-0.324249,-0.053406,425.000000,16.199966,-25.050003,-101.700012,425.000000
4260.000000,-0.410644,0.143066,0.891601,426.000000,0.040054,0.221252,-0.602722,426.000000,16.049957,-25.050003,-101.700012,426.000000
4270.000000,-0.409668,0.131836,0.904785,427.000000,-0.261307,0.221252,-0.297546,427.000000,15.899963,-26.700012,-101.100006,427.000000
4280.000000,-0.416504,0.130859,0.916504,428.000000,0.345230,0.282288,-0.053406,428.000000,17.549957,-25.050003,-101.250000,428.000000
4290.000000,-0.416016,0.130371,0.904785,429.000000,0.040054,-0.385284,0.431061,429.000000,16.349960,-25.650009,-101.100006,429.000000
4300.000000,-0.414551,0.140137,0.908691,430.000000,0.101089,0.770569,-0.236511,430.000000,16.949966,-26.400009,-102.600006,430.000000
4310.000000,-0.410156,0.138672,0.895508,431.000000,-0.078201,-0.446320,0.125885,431.000000,16.949966,-28.050003,-101.700012,431.000000
4320.000000,-0.419434,0.132812,0.906250,432.000000,0.284195,0.099182,0.553131,432.000000,17.699966,-28.050003,-101.700012,432.000000
4330.000000,-0.422851,0.134766,0.909668,433.000000,0.162125,-0.019073,0.431061,433.000000,16.349960,-25.050003,-102.450012,433.000000
4340.000000,-0.416504,0.137207,0.899902,434.000000,-0.322342,0.282288,0.308990,434.000000,16.349960,-25.650009,-101.850006,434.000000
4350.000000,-0.414062,0.126953,0.903808,435.000000,0.162125,-0.019073,0.186920,435.000000,16.949966,-25.650009,-101.850006,435.000000
4360.000000,-0.400879,0.122070,0.903320,436.000000,0.406265,0.038147,-0.053406,436.000000,16.649963,-24.750000,-101.700012,436.000000
4370.000000,-0.416992,0.140625,0.901855,437.000000,-0.139236,0.099182,-0.602722,437.000000,16.649963,-25.050003,-100.200012,437.000000
4380.000000,-0.413086,0.142578,0.901367,438.000000,0.223160,0.221252,-0.236511,438.000000,16.049957,-25.050003,-100.200012,438.000000
4390.000000,-0.419434,0.143555,0.902832,439.000000,0.467300,0.282288,0.675201,439.000000,18.449966,-25.950012,-101.850006,439.000000
4400.000000,-0.406250,0.135254,0.916504,440.000000,-0.322342,-0.080109,0.736237,440.000000,18.449966,-24.750000,-100.950012,440.000000
4410.000000,-0.406250,0.145508,0.897949,441.000000,-0.322342,0.221252,0.370026,441.000000,16.349960,-24.750000,-100.950012,441.000000
4420.000000,-0.411133,0.135254,0.905273,442.000000,0.345230,-0.324249,-0.175476,442.000000,16.349960,-25.950012,-100.050003,442.000000
4430.000000,-0.416016,0.136230,0.897461,443.000000,0.040054,-0.324249,0.186920,443.000000,16.349960,-28.200012,-102.150009,443.000000
4440.000000,-0.400879,0.135254,0.901367,444.000000,0.223160,0.099182,-0.114441,444.000000,17.249954,-28.200012,-102.150009,444.000000
4450.000000,-0.408691,0.131836,0.886719,445.000000,0.040054,0.526428,-0.114441,445.000000,16.949966,-26.250000,-102.000000,445.000000
4460.000000,-0.407226,0.131348,0.902832,446.000000,-0.749588,0.770569,0.003815,446.000000,15.899963,-26.550003,-102.000000,446.000000
4470.000000,-0.415527,0.138672,0.900390,447.000000,0.589371,0.953674,0.308990,447.000000,15.899963,-26.550003,-101.250000,447.000000
4480.000000,-0.416504,0.138184,0.906250,448.000000,0.284195,0.709534,-0.053406,448.000000,17.849960,-26.550003,-101.250000,448.000000
4490.000000,-0.418457,0.125488,0.905273,449.000000,0.406265,0.404358,-0.114441,449.000000,16.949966,-26.700012,-102.150009,449.000000
4500.000000,-0.412598,0.130371,0.905761,450.000000,-0.017166,0.099182,-0.297546,450.000000,16.949966,-26.250000,-101.250000,450.000000
4510.000000,-0.415039,0.134766,0.912597,451.000000,0.101089,-0.385284,0.003815,451.000000,14.999954,-26.250000,-101.250000,451.000000
4520.000000,-0.424316,0.141113,0.897461,452.000000,-0.261307,0.099182,0.370026,452.000000,16.349960,-25.200012,-101.100006,452.000000
4530.000000,-0.411621,0.132812,0.902344,453.000000,-0.078201,-0.202179,0.431061,453.000000,16.349960,-26.400009,-102.150009,453.000000
4540.000000,-0.413086,0.135254,0.900390,454.000000,0.345230,-0.263214,0.492096,454.000000,17.249954,-26.400009,-102.150009,454.000000
4550.000000,-0.422851,0.143555,0.904297,455.000000,-0.383377,-0.202179,0.247955,455.000000,16.199966,-26.550003,-102.450012,455.000000
4560.000000,-0.420410,0.136230,0.910156,456.000000,0.223160,-0.080109,0.492096,456.000000,16.199966,-27.300003,-100.650009,456.000000
4570.000000,-0.415527,0.129395,0.892578,457.000000,0.711441,-1.056671,0.553131,457.000000,16.049957,-27.300003,-100.650009,457.000000
4580.000000,-0.414062,0.131836,0.911133,458.000000,0.467300,-0.385284,0.064850,458.000000,16.049957,-26.400009,-101.550003,458.000000
4590.000000,-0.417480,0.136719,0.915527,459.000000,-0.139236,-0.690460,0.553131,459.000000,15.149963,-26.400009,-101.550003,459.000000
4600.000000,-0.424316,0.134766,0.911133,460.000000,-0.078201,-0.324249,0.064850,460.000000,16.349960,-24.750000,-100.200012,460.000000
4610.000000,-0.425293,0.141113,0.911133,461.000000,-0.200272,-0.019073,0.247955,461.000000,16.649963,-25.650009,-100.500000,461.000000
4620.000000,-0.417969,0.127441,0.915527,462.000000,0.406265,0.221252,-0.358582,462.000000,16.649963,-26.250000,-100.950012,462.000000
4630.000000,-0.408691,0.135742,0.902832,463.000000,0.406265,-0.324249,-0.724792,463.000000,16.649963,-26.250000,-100.950012,463.000000
4640.000000,-0.418945,0.125488,0.901367,464.000000,0.772476,-0.446320,0.003815,464.000000,16.949966,-25.800003,-100.950012,464.000000
4650.000000,-0.399414,0.134277,0.901855,465.000000,0.162125,-0.629425,0.064850,465.000000,16.949966,-26.250000,-100.200012,465.000000
4660.000000,-0.416504,0.144043,0.900879,466.000000,0.284195,-0.507355,0.186920,466.000000,16.949966,-26.250000,-100.200012,466.000000
4670.000000,-0.418457,0.145020,0.913574,467.000000,0.284195,0.099182,0.186920,467.000000,16.649963,-27.000000,-101.700012,467.000000
4680.000000,-0.401855,0.135254,0.899414,468.000000,0.162125,-0.568390,-0.297546,468.000000,16.649963,-26.250000,-100.950012,468.000000
4690.000000,-0.397949,0.149902,0.904297,469.000000,-0.078201,0.160217,0.125885,469.000000,15.749954,-26.250000,-100.950012,469.000000
4700.000000,-0.418457,0.138184,0.894531,470.000000,-0.017166,-0.080109,0.186920,470.000000,16.799957,-25.950012,-101.550003,470.000000
4710.000000,-0.413086,0.137695,0.900879,471.000000,0.284195,-0.263214,0.064850,471.000000,16.799957,-24.900009,-102.150009,471.000000
4720.000000,-0.402344,0.129883,0.912109,472.000000,0.528336,-0.324249,0.003815,472.000000,17.699966,-24.900009,-102.150009,472.000000
4730.000000,-0.411621,0.135254,0.900879,473.000000,0.833511,0.099182,-0.175476,473.000000,16.799957,-25.800003,-100.650009,473.000000
4740.000000,-0.404785,0.130859,0.908691,474.000000,0.894547,-0.080109,0.064850,474.000000,16.799957,-25.650009,-101.850006,474.000000
4750.000000,-0.409668,0.131348,0.908691,475.000000,0.223160,0.099182,0.247955,475.000000,15.749954,-25.650009,-101.850006,475.000000
4760.000000,-0.417969,0.125977,0.897949,476.000000,0.223160,-0.263214,-0.541687,476.000000,16.199966,-25.200012,-100.050003,476.000000
4770.000000,-0.406250,0.139648,0.907715,477.000000,0.406265,-0.080109,-0.114441,477.000000,15.749954,-23.550003,-101.250000,477.000000
4780.000000,-0.400391,0.142578,0.898437,478.000000,0.345230,0.282288,0.186920,478.000000,15.749954,-24.450012,-99.750000,478.000000
4790.000000,-0.418945,0.142578,0.898926,479.000000,0.284195,-0.141144,-0.114441,479.000000,17.099960,-24.450012,-99.750000,479.000000
4800.000000,-0.401855,0.125000,0.893554,480.000000,0.223160,-0.141144,0.125885,480.000000,17.099960,-24.900009,-100.800003,480.000000
4810.000000,-0.412109,0.145508,0.887207,481.000000,0.162125,0.038147,-0.053406,481.000000,17.099960,-26.700012,-101.100006,481.000000
4820.000000,-0.409668,0.138184,0.897949,482.000000,0.223160,0.587463,0.125885,482.000000,16.349960,-26.700012,-101.100006,482.000000
4830.000000,-0.423340,0.126465,0.909668,483.000000,0.223160,0.099182,-0.114441,483.000000,18.149963,-26.400009,-101.550003,483.000000
4840.000000,-0.407715,0.134766,0.902344,484.000000,-0.505447,0.465393,0.064850,484.000000,18.149963,-25.650009,-100.500000,484.000000
4850.000000,-0.425293,0.137207,0.900390,485.000000,0.162125,0.221252,0.675201,485.000000,16.349960,-25.650009,-100.500000,485.000000
4860.000000,-0.428223,0.142578,0.903320,486.000000,0.284195,0.282288,0.431061,486.000000,16.799957,-28.650009,-101.550003,486.000000
4870.000000,-0.416016,0.136719,0.906250,487.000000,0.223160,-0.019073,0.003815,487.000000,16.649963,-25.950012,-100.050003,487.000000
4880.000000,-0.403320,0.132324,0.909179,488.000000,-0.383377,-0.446320,-0.663757,488.000000,17.249954,-25.500000,-99.600006,488.000000
4890.000000,-0.401367,0.132812,0.899902,489.000000,-0.200272,-0.751495,0.431061,489.000000,17.249954,-25.050003,-101.700012,489.000000
4900.000000,-0.409668,0.125977,0.907226,490.000000,-0.200272,0.038147,0.125885,490.000000,16.649963,-25.050003,-101.700012,490.000000
4910.000000,-0.418945,0.121094,0.895019,491.000000,0.101089,0.648499,0.247955,491.000000,16.649963,-26.250000,-100.200012,491.000000
4920.000000,-0.416504,0.134277,0.899902,492.000000,-0.505447,0.038147,0.247955,492.000000,17.099960,-25.500000,-101.250000,492.000000
4930.000000,-0.400391,0.133301,0.905273,493.000000,-0.505447,0.160217,-0.358582,493.000000,17.099960,-25.950012,-99.300003,493.000000
4940.000000,-0.396973,0.139160,0.898926,494.000000,-0.932693,0.343323,0.064850,494.000000,14.849960,-25.950012,-99.300003,494.000000
4950.000000,-0.413086,0.139648,0.905273,495.000000,-0.078201,0.526428,0.308990,495.000000,15.749954,-26.550003,-101.700012,495.000000
4960.000000,-0.412109,0.135254,0.908691,496.000000,0.162125,0.465393,-0.114441,496.000000,15.749954,-24.900009,-100.050003,496.000000
4970.000000,-0.410644,0.143555,0.905273,497.000000,-0.200272,-0.202179,0.064850,497.000000,15.899963,-24.900009,-100.050003,497.000000
4980.000000,-0.412598,0.134766,0.895996,498.000000,0.040054,-0.141144,-0.114441,498.000000,16.199966,-25.050003,-101.250000,498.000000
4990.000000,-0.407226,0.125977,0.911621,499.000000,-0.139236,-0.080109,0.003815,499.000000,16.199966,-25.050003,-99.900009,499.000000
5000.000000,-0.406738,0.127441,0.924804,500.000000,-0.200272,-0.019073,-0.297546,500.000000,16.049957,-25.050003,-99.900009,500.000000
5010.000000,-0.422851,0.140137,0.903320,501.000000,-0.688553,0.099182,0.186920,501.000000,16.649963,-25.950012,-101.850006,501.000000
5020.000000,-0.415527,0.139648,0.887695,502.000000,-0.688553,-0.141144,0.064850,502.000000,16.649963,-24.750000,-103.500000,502.000000
5030.000000,-0.415527,0.144043,0.912109,503.000000,-0.017166,0.099182,-0.114441,503.000000,16.949966,-24.750000,-103.500000,503.000000
5040.000000,-0.413574,0.124023,0.905761,504.000000,-0.139236,0.038147,-0.236511,504.000000,16.649963,-27.000000,-102.000000,504.000000
5050.000000,-0.410156,0.134277,0.903808,505.000000,-0.078201,0.099182,-0.114441,505.000000,16.649963,-26.550003,-100.950012,505.000000
5060.000000,-0.415039,0.145020,0.901855,506.000000,-0.139236,0.709534,0.003815,506.000000,17.699966,-26.550003,-100.950012,506.000000
5070.000000,-0.419922,0.127441,0.900879,507.000000,0.467300,0.099182,-0.297546,507.000000,16.949966,-25.800003,-100.950012,507.000000
5080.000000,-0.429199,0.135742,0.895508,508.000000,-0.078201,0.099182,-0.297546,508.000000,16.649963,-26.550003,-100.650009,508.000000
5090.000000,-0.415527,0.140625,0.893554,509.000000,0.223160,0.648499,-0.053406,509.000000,16.649963,-27.300003,-101.250000,509.000000
5100.000000,-0.405762,0.134277,0.900879,510.000000,0.284195,0.587463,-0.236511,510.000000,17.099960,-27.300003,-101.250000,510.000000
5110.000000,-0.411621,0.135254,0.913574,511.000000,0.162125,0.160217,-0.297546,511.000000,17.549957,-25.650009,-101.850006,511.000000
5120.000000,-0.402832,0.125488,0.894043,512.000000,-0.017166,-0.080109,0.308990,512.000000,17.549957,-25.650009,-101.850006,512.000000
5130.000000,-0.408203,0.138672,0.906250,513.000000,-0.078201,0.282288,-0.053406,513.000000,16.349960,-25.650009,-101.850006,513.000000
5140.000000,-0.406738,0.131836,0.905273,514.000000,-0.139236,0.099182,0.308990,514.000000,17.549957,-25.950012,-100.050003,514.000000
5150.000000,-0.408691,0.133301,0.894043,515.000000,-0.017166,0.282288,-0.114441,515.000000,17.549957,-27.450012,-101.100006,515.000000
5160.000000,-0.407715,0.130859,0.901855,516.000000,0.284195,-0.019073,0.064850,516.000000,16.799957,-27.450012,-101.100006,516.000000
5170.000000,-0.422851,0.131836,0.891601,517.000000,0.345230,-0.263214,0.003815,517.000000,15.449966,-25.950012,-100.500000,517.000000
5180.000000,-0.405762,0.139648,0.895508,518.000000,0.162125,-0.141144,-0.419617,518.000000,17.999954,-25.050003,-101.700012,518.000000
5190.000000,-0.412109,0.139648,0.915039,519.000000,0.223160,-0.019073,0.125885,519.000000,16.949966,-24.750000,-99.900009,519.000000
5200.000000,-0.402832,0.119629,0.899902,520.000000,0.406265,-0.202179,0.186920,520.000000,16.949966,-27.300003,-102.000000,520.000000
5210.000000,-0.408691,0.141113,0.914062,521.000000,-0.200272,0.221252,0.003815,521.000000,17.549957,-27.300003,-102.000000,521.000000
5220.000000,-0.412109,0.138184,0.895996,522.000000,-0.078201,-0.080109,0.614166,522.000000,17.849960,-25.200012,-101.550003,522.000000
5230.000000,-0.422363,0.127441,0.903320,523.000000,-0.627518,-0.019073,0.247955,523.000000,17.549957,-25.950012,-101.550003,523.000000
5240.000000,-0.408203,0.138672,0.900879,524.000000,-0.444412,0.282288,0.003815,524.000000,17.549957,-25.950012,-100.800003,524.000000
5250.000000,-0.421875,0.128418,0.892578,525.000000,-0.383377,0.587463,-0.114441,525.000000,17.099960,-25.950012,-100.800003,525.000000
5260.000000,-0.430664,0.127441,0.895508,526.000000,-0.078201,0.160217,0.125885,526.000000,17.099960,-25.200012,-101.550003,526.000000
5270.000000,-0.415039,0.124512,0.891601,527.000000,-0.017166,-0.202179,0.064850,527.000000,17.099960,-25.200012,-100.500000,527.000000
5280.000000,-0.406738,0.124512,0.900879,528.000000,0.040054,0.343323,-0.053406,528.000000,16.049957,-25.200012,-100.500000,528.000000
5290.000000,-0.413574,0.130859,0.899902,529.000000,-0.383377,-0.751495,0.247955,529.000000,15.749954,-25.200012,-101.550003,529.000000
5300.000000,-0.406250,0.126465,0.896484,530.000000,0.223160,0.099182,0.064850,530.000000,15.749954,-27.150009,-102.150009,530.000000
5310.000000,-0.420898,0.127930,0.912109,531.000000,0.467300,0.099182,0.003815,531.000000,17.249954,-27.150009,-102.150009,531.000000
5320.000000,-0.411133,0.139160,0.910156,532.000000,-0.200272,0.099182,-0.175476,532.000000,16.949966,-25.800003,-99.900009,532.000000
5330.000000,-0.414062,0.130371,0.917480,533.000000,-0.261307,-0.202179,0.186920,533.000000,16.949966,-27.000000,-100.950012,533.000000
5340.000000,-0.419922,0.129395,0.900390,534.000000,0.101089,-0.446320,-0.297546,534.000000,15.749954,-27.000000,-100.950012,534.000000
5350.000000,-0.400879,0.127930,0.901367,535.000000,-0.078201,0.160217,-0.175476,535.000000,16.349960,-26.700012,-100.500000,535.000000
5360.000000,-0.402344,0.136230,0.900390,536.000000,-0.261307,0.160217,0.186920,536.000000,16.349960,-25.200012,-101.100006,536.000000
5370.000000,-0.411133,0.141602,0.899902,537.000000,-0.017166,-0.141144,0.125885,537.000000,17.249954,-25.200012,-101.100006,537.000000
5380.000000,-0.415527,0.132324,0.892578,538.000000,-0.017166,-0.263214,0.308990,538.000000,16.799957,-25.500000,-101.250000,538.000000
5390.000000,-0.413574,0.118652,0.909668,539.000000,0.467300,-0.202179,0.247955,539.000000,16.799957,-24.450012,-100.500000,539.000000
5400.000000,-0.406738,0.140137,0.900390,540.000000,0.711441,-0.202179,-0.175476,540.000000,16.649963,-24.450012,-100.500000,540.000000
5410.000000,-0.418945,0.134766,0.907226,541.000000,0.040054,-0.141144,-0.236511,541.000000,15.899963,-25.500000,-101.250000,541.000000
5420.000000,-0.416016,0.132324,0.910156,542.000000,0.711441,0.587463,-0.480652,542.000000,15.899963,-25.800003,-100.950012,542.000000
5430.000000,-0.417969,0.132812,0.892578,543.000000,-0.078201,-0.141144,0.247955,543.000000,16.049957,-25.800003,-100.950012,543.000000
5440.000000,-0.428223,0.135254,0.907715,544.000000,-0.078201,-0.507355,-0.236511,544.000000,15.449966,-25.650009,-101.550003,544.000000
5450.000000,-0.414062,0.141602,0.900879,545.000000,-0.322342,-0.202179,-0.114441,545.000000,15.449966,-25.800003,-100.950012,545.000000
5460.000000,-0.423828,0.137695,0.901855,546.000000,-0.078201,0.282288,0.125885,546.000000,17.699966,-25.800003,-100.950012,546.000000
5470.000000,-0.423828,0.140625,0.897949,547.000000,-0.139236,0.526428,-0.053406,547.000000,16.949966,-26.550003,-100.950012,547.000000
5480.000000,-0.408203,0.130859,0.913574,548.000000,0.101089,0.282288,0.492096,548.000000,16.949966,-26.250000,-100.950012,548.000000
5490.000000,-0.414551,0.146973,0.900390,549.000000,-0.139236,0.099182,0.492096,549.000000,16.949966,-26.250000,-100.950012,549.000000
5500.000000,-0.418457,0.134766,0.905761,550.000000,0.284195,-0.019073,1.041412,550.000000,17.549957,-27.300003,-100.950012,550.000000
5510.000000,-0.425781,0.126465,0.904785,551.000000,-0.017166,-0.080109,0.003815,551.000000,17.549957,-27.450012,-100.800003,551.000000
5520.000000,-0.409180,0.133301,0.912597,552.000000,0.162125,-1.117706,0.308990,552.000000,15.749954,-27.450012,-100.800003,552.000000
5530.000000,-0.405762,0.139160,0.900390,553.000000,0.345230,-0.568390,-0.175476,553.000000,16.799957,-25.200012,-100.800003,553.000000
5540.000000,-0.398926,0.138672,0.906250,554.000000,-0.322342,-1.239777,0.247955,554.000000,16.049957,-25.950012,-101.100006,554.000000
5550.000000,-0.396973,0.136230,0.897949,555.000000,-0.444412,-0.324249,0.247955,555.000000,16.049957,-26.400009,-100.800003,555.000000
5560.000000,-0.398926,0.135742,0.890136,556.000000,-0.017166,0.343323,-0.236511,556.000000,16.349960,-26.400009,-100.800003,556.000000
5570.000000,-0.400391,0.118652,0.895508,557.000000,0.040054,0.099182,0.308990,557.000000,16.349960,-26.700012,-102.150009,557.000000
5580.000000,-0.436035,0.133789,0.891113,558.000000,0.589371,0.465393,-0.053406,558.000000,16.349960,-26.400009,-102.150009,558.000000
5590.000000,-0.413086,0.138672,0.912109,559.000000,0.223160,0.404358,-0.236511,559.000000,16.649963,-26.400009,-102.150009,559.000000
5600.000000,-0.402344,0.141113,0.914062,560.000000,0.406265,-0.080109,-0.724792,560.000000,16.949966,-26.250000,-100.650009,560.000000
5610.000000,-0.412598,0.140137,0.904297,561.000000,0.406265,0.038147,-0.053406,561.000000,16.949966,-25.050003,-101.250000,561.000000
5620.000000,-0.416992,0.140625,0.893066,562.000000,0.284195,-0.080109,-0.419617,562.000000,15.299957,-25.050003,-101.250000,562.000000
5630.000000,-0.398437,0.130371,0.910644,563.000000,-0.200272,0.465393,0.247955,563.000000,18.149963,-26.400009,-100.800003,563.000000
5640.000000,-0.406738,0.135742,0.896972,564.000000,-0.017166,-0.080109,0.308990,564.000000,18.149963,-26.400009,-100.800003,564.000000
5650.000000,-0.404785,0.128906,0.897949,565.000000,-0.078201,0.099182,0.064850,565.000000,15.899963,-26.400009,-100.800003,565.000000
5660.000000,-0.417969,0.136230,0.889648,566.000000,0.223160,-0.324249,0.003815,566.000000,17.849960,-27.000000,-99.600006,566.000000
5670.000000,-0.422851,0.126465,0.896972,567.000000,0.406265,0.038147,0.492096,567.000000,17.849960,-25.950012,-101.550003,567.000000
5680.000000,-0.409180,0.133789,0.903320,568.000000,0.528336,-0.263214,0.553131,568.000000,16.199966,-25.950012,-101.550003,568.000000
5690.000000,-0.410644,0.134766,0.912109,569.000000,1.016617,-0.385284,0.370026,569.000000,16.799957,-25.800003,-102.450012,569.000000
5700.000000,-0.408203,0.134766,0.918457,570.000000,0.345230,-0.385284,-0.541687,570.000000,16.049957,-26.400009,-100.800003,570.000000
5710.000000,-0.408203,0.134277,0.897949,571.000000,0.040054,0.221252,-0.358582,571.000000,16.049957,-25.950012,-101.850006,571.000000
5720.000000,-0.398926,0.126465,0.902344,572.000000,0.467300,0.038147,0.125885,572.000000,17.549957,-25.950012,-101.850006,572.000000
5730.000000,-0.414062,0.133789,0.907226,573.000000,-0.017166,0.343323,0.064850,573.000000,16.949966,-25.650009,-100.050003,573.000000
5740.000000,-0.413086,0.120117,0.899414,574.000000,0.528336,0.587463,-0.236511,574.000000,16.949966,-26.250000,-100.650009,574.000000
5750.000000,-0.407715,0.128418,0.900390,575.000000,0.162125,0.648499,-0.175476,575.000000,17.549957,-26.250000,-100.650009,575.000000
5760.000000,-0.417480,0.133789,0.896972,576.000000,-0.078201,0.160217,-0.419617,576.000000,17.249954,-24.450012,-101.550003,576.000000
5770.000000,-0.411133,0.135742,0.902344,577.000000,0.406265,0.221252,0.125885,577.000000,16.049957,-26.550003,-100.950012,577.000000
5780.000000,-0.407226,0.145996,0.919433,578.000000,-0.261307,0.160217,0.370026,578.000000,16.949966,-25.950012,-101.550003,578.000000
5790.000000,-0.406738,0.125000,0.896972,579.000000,-0.444412,-0.019073,0.308990,579.000000,16.949966,-26.250000,-102.000000,579.000000
5800.000000,-0.414551,0.133301,0.902832,580.000000,0.345230,-0.385284,0.308990,580.000000,16.799957,-26.250000,-102.000000,580.000000
5810.000000,-0.417480,0.126953,0.894043,581.000000,0.101089,0.282288,0.064850,581.000000,15.899963,-26.400009,-102.900009,581.000000
5820.000000,-0.420410,0.135742,0.908203,582.000000,0.528336,0.099182,0.431061,582.000000,15.899963,-25.050003,-102.750000,582.000000
5830.000000,-0.419434,0.121094,0.905761,583.000000,0.040054,0.038147,-0.114441,583.000000,15.899963,-25.050003,-102.750000,583.000000
5840.000000,-0.411133,0.124023,0.904297,584.000000,0.406265,0.099182,0.247955,584.000000,16.649963,-26.550003,-102.450012,584.000000
5850.000000,-0.406250,0.137695,0.898437,585.000000,-0.200272,-0.141144,0.125885,585.000000,16.349960,-25.800003,-100.650009,585.000000
5860.000000,-0.411621,0.132324,0.903320,586.000000,0.223160,-0.019073,-0.236511,586.000000,16.349960,-25.650009,-100.800003,586.000000
5870.000000,-0.415039,0.133301,0.904785,587.000000,-0.078201,0.038147,-0.175476,587.000000,17.549957,-25.650009,-100.800003,587.000000
5880.000000,-0.404297,0.128418,0.912109,588.000000,0.162125,0.038147,-0.114441,588.000000,16.949966,-25.650009,-102.150009,588.000000
5890.000000,-0.418457,0.116211,0.902832,589.000000,-0.078201,-0.324249,-0.053406,589.000000,16.949966,-26.250000,-101.250000,589.000000
5900.000000,-0.407715,0.133789,0.905761,590.000000,-0.200272,0.099182,0.308990,590.000000,16.649963,-26.250000,-101.250000,590.000000
5910.000000,-0.411621,0.130371,0.898926,591.000000,-0.139236,0.160217,0.125885,591.000000,16.349960,-26.550003,-100.950012,591.000000
5920.000000,-0.415527,0.125977,0.900390,592.000000,-0.261307,0.160217,-0.236511,592.000000,16.349960,-27.150009,-102.150009,592.000000
5930.000000,-0.405273,0.139648,0.895019,593.000000,-0.017166,-0.019073,0.186920,593.000000,14.849960,-27.150009,-102.150009,593.000000
5940.000000,-0.405273,0.128418,0.905761,594.000000,-0.139236,0.160217,0.125885,594.000000,17.549957,-26.550003,-100.650009,594.000000
5950.000000,-0.414551,0.131836,0.902344,595.000000,0.528336,-0.141144,0.003815,595.000000,17.549957,-25.650009,-101.100006,595.000000
5960.000000,-0.419434,0.138672,0.891601,596.000000,-0.017166,-0.873566,0.186920,596.000000,17.099960,-25.650009,-101.100006,596.000000
5970.000000,-0.410644,0.121582,0.894043,597.000000,0.345230,0.221252,-0.358582,597.000000,16.649963,-25.650009,-102.150009,597.000000
5980.000000,-0.418457,0.136230,0.899902,598.000000,0.101089,-0.446320,0.492096,598.000000,16.649963,-26.550003,-101.250000,598.000000
5990.000000,-0.406250,0.133789,0.907715,599.000000,0.406265,-0.202179,0.675201,599.000000,17.699966,-26.550003,-101.250000,599.000000
6000.000000,-0.425781,0.127930,0.895508,600.000000,0.101089,0.160217,0.308990,600.000000,16.349960,-25.500000,-100.650009,600.000000
6010.000000,-0.402832,0.133789,0.910644,601.000000,-0.078201,0.038147,-0.053406,601.000000,16.349960,-26.400009,-100.500000,601.000000
6020.000000,-0.416992,0.134277,0.916992,602.000000,-0.444412,0.465393,-0.053406,602.000000,16.349960,-26.400009,-102.150009,602.000000
6030.000000,-0.416992,0.134766,0.899414,603.000000,0.284195,0.648499,-0.114441,603.000000,17.099960,-26.400009,-102.150009,603.000000
6040.000000,-0.416992,0.138672,0.894043,604.000000,0.040054,0.343323,-0.053406,604.000000,17.099960,-25.650009,-101.550003,604.000000
6050.000000,-0.421875,0.139648,0.903320,605.000000,0.833511,0.221252,-0.114441,605.000000,17.099960,-27.150009,-102.150009,605.000000
6060.000000,-0.416016,0.139648,0.906738,606.000000,0.345230,-0.324249,-0.053406,606.000000,17.099960,-27.150009,-102.150009,606.000000
6070.000000,-0.415039,0.138184,0.906738,607.000000,0.223160,-0.080109,-0.114441,607.000000,16.799957,-27.450012,-101.100006,607.000000
6080.000000,-0.415527,0.137695,0.904785,608.000000,0.162125,0.099182,-0.053406,608.000000,16.199966,-25.200012,-101.850006,608.000000
6090.000000,-0.402344,0.139160,0.910156,609.000000,-0.139236,-0.019073,-0.175476,609.000000,16.349960,-26.550003,-101.700012,609.000000
6100.000000,-0.409180,0.139160,0.902832,610.000000,-0.200272,-0.080109,-0.114441,610.000000,16.349960,-25.950012,-102.600006,610.000000
6110.000000,-0.412598,0.132324,0.901367,611.000000,-0.566483,0.526428,0.431061,611.000000,17.099960,-25.950012,-102.600006,611.000000
6120.000000,-0.417480,0.138672,0.900390,612.000000,0.528336,-0.263214,0.064850,612.000000,16.049957,-26.700012,-101.550003,612.000000
6130.000000,-0.423828,0.133789,0.894043,613.000000,0.223160,0.465393,-0.114441,613.000000,16.049957,-25.650009,-100.500000,613.000000
6140.000000,-0.406250,0.125977,0.895508,614.000000,0.162125,0.160217,0.431061,614.000000,16.049957,-25.650009,-100.500000,614.000000
6150.000000,-0.412598,0.119629,0.907226,615.000000,-0.139236,-0.019073,-0.480652,615.000000,17.999954,-24.900009,-100.050003,615.000000
6160.000000,-0.418457,0.128418,0.899902,616.000000,-0.139236,-0.690460,-0.053406,616.000000,16.049957,-27.300003,-101.700012,616.000000
6170.000000,-0.402344,0.142578,0.892578,617.000000,0.162125,0.160217,-0.053406,617.000000,16.049957,-24.900009,-101.100006,617.000000
6180.000000,-0.416504,0.146973,0.903808,618.000000,0.345230,0.160217,0.125885,618.000000,15.749954,-24.900009,-101.100006,618.000000
6190.000000,-0.416504,0.136719,0.904785,619.000000,0.040054,0.343323,0.003815,619.000000,17.549957,-25.950012,-100.500000,619.000000
6200.000000,-0.433594,0.137207,0.897949,620.000000,0.101089,0.465393,0.064850,620.000000,17.549957,-26.400009,-100.500000,620.000000
6210.000000,-0.423828,0.127930,0.908691,621.000000,0.040054,-0.568390,-0.175476,621.000000,17.699966,-26.400009,-100.500000,621.000000
6220.000000,-0.412109,0.128906,0.889160,622.000000,0.101089,-0.385284,0.125885,622.000000,16.649963,-27.000000,-100.200012,622.000000
6230.000000,-0.417969,0.136230,0.904785,623.000000,0.772476,-0.385284,0.125885,623.000000,16.649963,-24.750000,-102.000000,623.000000
6240.000000,-0.418945,0.121094,0.893554,624.000000,0.162125,0.404358,0.308990,624.000000,16.049957,-24.750000,-102.000000,624.000000
6250.000000,-0.409180,0.127930,0.898926,625.000000,0.406265,-0.019073,0.308990,625.000000,16.349960,-25.950012,-102.600006,625.000000
6260.000000,-0.411621,0.130371,0.895508,626.000000,0.040054,0.038147,-0.114441,626.000000,16.349960,-25.950012,-101.100006,626.000000
6270.000000,-0.419434,0.140137,0.901367,627.000000,-0.078201,0.160217,0.370026,627.000000,16.049957,-25.950012,-101.100006,627.000000
6280.000000,-0.416504,0.144043,0.906738,628.000000,-0.078201,-0.507355,0.064850,628.000000,16.199966,-25.650009,-102.600006,628.000000
6290.000000,-0.416992,0.140625,0.903808,629.000000,-0.139236,0.099182,-0.175476,629.000000,16.199966,-26.250000,-100.950012,629.000000
6300.000000,-0.408691,0.142090,0.900879,630.000000,0.162125,0.282288,0.003815,630.000000,16.649963,-26.250000,-100.950012,630.000000
6310.000000,-0.415527,0.136230,0.896972,631.000000,0.345230,-0.324249,-0.175476,631.000000,15.299957,-25.050003,-100.950012,631.000000
6320.000000,-0.413574,0.136719,0.898926,632.000000,0.162125,0.099182,0.186920,632.000000,15.299957,-24.450012,-101.100006,632.000000
6330.000000,-0.415039,0.124023,0.895996,633.000000,-0.261307,-0.263214,0.064850,633.000000,17.549957,-24.450012,-101.100006,633.000000
6340.000000,-0.408691,0.131348,0.901367,634.000000,0.406265,0.038147,-0.175476,634.000000,16.349960,-25.650009,-101.100006,634.000000
6350.000000,-0.413086,0.128906,0.894043,635.000000,-0.261307,-0.019073,-0.114441,635.000000,16.349960,-25.950012,-101.100006,635.000000
6360.000000,-0.401855,0.119629,0.913086,636.000000,0.101089,0.282288,-0.480652,636.000000,15.899963,-25.950012,-101.100006,636.000000
6370.000000,-0.400391,0.125977,0.912109,637.000000,0.223160,0.038147,-0.053406,637.000000,17.249954,-25.500000,-100.650009,637.000000
6380.000000,-0.420898,0.117187,0.898926,638.000000,0.284195,-0.080109,0.064850,638.000000,17.249954,-25.050003,-101.250000,638.000000
6390.000000,-0.401367,0.131348,0.897949,639.000000,1.077652,0.099182,-0.053406,639.000000,16.049957,-25.050003,-101.250000,639.000000
6400.000000,-0.419922,0.133301,0.903320,640.000000,-0.078201,-0.202179,-0.419617,640.000000,15.749954,-25.950012,-101.550003,640.000000
6410.000000,-0.418945,0.132324,0.909179,641.000000,0.284195,0.160217,-0.114441,641.000000,15.749954,-25.950012,-101.550003,641.000000
6420.000000,-0.418945,0.127441,0.896972,642.000000,-0.078201,-0.324249,0.308990,642.000000,16.949966,-25.950012,-101.550003,642.000000
6430.000000,-0.415527,0.130859,0.910644,643.000000,-0.627518,0.099182,0.492096,643.000000,16.949966,-26.550003,-101.250000,643.000000
6440.000000,-0.419434,0.127441,0.906738,644.000000,-0.261307,-0.080109,0.492096,644.000000,16.949966,-25.500000,-101.250000,644.000000
6450.000000,-0.413086,0.132812,0.906250,645.000000,-0.017166,-0.324249,-0.053406,645.000000,16.649963,-25.500000,-101.250000,645.000000
6460.000000,-0.424316,0.138184,0.910644,646.000000,0.040054,-0.690460,0.553131,646.000000,14.999954,-24.000000,-100.200012,646.000000
6470.000000,-0.408203,0.138672,0.897949,647.000000,0.223160,-0.446320,0.308990,647.000000,16.649963,-25.650009,-100.800003,647.000000
6480.000000,-0.404297,0.142578,0.906738,648.000000,-0.200272,-0.812531,0.125885,648.000000,16.649963,-25.050003,-99.600006,648.000000
6490.000000,-0.405273,0.118164,0.893554,649.000000,-0.322342,-0.263214,0.064850,649.000000,16.199966,-25.050003,-99.600006,649.000000
6500.000000,-0.405762,0.145020,0.898926,650.000000,0.284195,-0.019073,0.308990,650.000000,16.049957,-25.800003,-100.950012,650.000000
6510.000000,-0.397949,0.136719,0.901855,651.000000,-0.017166,-0.385284,-0.236511,651.000000,16.049957,-26.400009,-101.100006,651.000000
6520.000000,-0.417969,0.134766,0.894531,652.000000,-0.139236,-0.446320,-0.053406,652.000000,16.049957,-26.400009,-101.100006,652.000000
6530.000000,-0.413086,0.145996,0.896484,653.000000,0.040054,0.221252,0.308990,653.000000,17.249954,-26.700012,-102.150009,653.000000
6540.000000,-0.414551,0.136719,0.900879,654.000000,0.345230,0.343323,-0.480652,654.000000,17.249954,-25.050003,-100.650009,654.000000
6550.000000,-0.406250,0.134766,0.904785,655.000000,0.040054,0.282288,-0.175476,655.000000,15.149963,-25.050003,-100.650009,655.000000
6560.000000,-0.406738,0.133301,0.910156,656.000000,0.040054,-0.141144,-0.419617,656.000000,15.449966,-26.250000,-101.700012,656.000000
6570.000000,-0.407715,0.139648,0.907226,657.000000,-0.261307,0.099182,-0.053406,657.000000,15.449966,-25.800003,-101.250000,657.000000
6580.000000,-0.414062,0.132812,0.900879,658.000000,0.040054,-0.019073,-0.053406,658.000000,16.349960,-25.800003,-101.250000,658.000000
6590.000000,-0.430664,0.144043,0.910644,659.000000,-0.444412,0.160217,0.003815,659.000000,16.199966,-27.150009,-101.850006,659.000000
6600.000000,-0.423340,0.136719,0.904785,660.000000,0.162125,-0.019073,-0.053406,660.000000,16.199966,-26.550003,-102.000000,660.000000
6610.000000,-0.407226,0.137695,0.891601,661.000000,-0.383377,-0.080109,0.125885,661.000000,16.349960,-26.550003,-102.000000,661.000000
6620.000000,-0.408203,0.128418,0.902832,662.000000,-0.444412,-0.202179,-0.175476,662.000000,15.449966,-24.900009,-101.100006,662.000000
6630.000000,-0.411621,0.127930,0.903320,663.000000,0.162125,0.038147,0.125885,663.000000,15.449966,-26.550003,-102.450012,663.000000
6640.000000,-0.418945,0.130859,0.903808,664.000000,0.467300,0.343323,0.064850,664.000000,15.449966,-23.250000,-102.750000,664.000000
6650.000000,-0.416504,0.121582,0.899902,665.000000,0.711441,0.038147,-0.480652,665.000000,17.099960,-23.250000,-102.750000,665.000000
6660.000000,-0.418457,0.139160,0.898926,666.000000,0.528336,0.282288,0.003815,666.000000,15.899963,-25.950012,-100.800003,666.000000
6670.000000,-0.414062,0.130859,0.916015,667.000000,0.528336,0.587463,-0.053406,667.000000,15.749954,-25.800003,-102.450012,667.000000
6680.000000,-0.409180,0.138672,0.896972,668.000000,0.040054,0.526428,-0.175476,668.000000,16.199966,-27.900009,-101.100006,668.000000
6690.000000,-0.410644,0.148926,0.903808,669.000000,-0.261307,0.221252,0.247955,669.000000,16.199966,-27.000000,-100.950012,669.000000
6700.000000,-0.420410,0.140625,0.918457,670.000000,-0.444412,-0.019073,-0.541687,670.000000,15.899963,-27.000000,-100.950012,670.000000
6710.000000,-0.424316,0.127930,0.907226,671.000000,0.040054,-0.019073,-0.236511,671.000000,15.899963,-25.500000,-101.700012,671.000000
6720.000000,-0.426269,0.138672,0.909179,672.000000,0.040054,-0.202179,0.553131,672.000000,15.899963,-25.500000,-101.250000,672.000000
6730.000000,-0.415039,0.138672,0.903320,673.000000,-0.139236,0.221252,-0.053406,673.000000,14.849960,-25.500000,-101.250000,673.000000
6740.000000,-0.421387,0.133301,0.910156,674.000000,-0.322342,0.160217,0.125885,674.000000,15.749954,-25.500000,-100.200012,674.000000
6750.000000,-0.412598,0.127441,0.916992,675.000000,0.467300,0.038147,0.858307,675.000000,15.749954,-25.200012,-100.500000,675.000000
6760.000000,-0.408691,0.134277,0.903320,676.000000,0.467300,0.160217,0.675201,676.000000,17.249954,-25.200012,-100.500000,676.000000
6770.000000,-0.411621,0.131836,0.898437,677.000000,0.772476,0.221252,0.064850,677.000000,17.999954,-27.000000,-101.250000,677.000000
6780.000000,-0.409668,0.133301,0.890625,678.000000,0.345230,0.526428,-0.114441,678.000000,16.949966,-24.000000,-102.000000,678.000000
6790.000000,-0.416504,0.132812,0.893554,679.000000,0.101089,0.404358,0.247955,679.000000,16.949966,-26.550003,-100.650009,679.000000
6800.000000,-0.423828,0.128418,0.896484,680.000000,0.162125,0.221252,0.125885,680.000000,17.099960,-26.550003,-100.650009,680.000000
6810.000000,-0.417969,0.139648,0.893066,681.000000,0.467300,-0.019073,-0.114441,681.000000,15.449966,-25.200012,-102.150009,681.000000
6820.000000,-0.411621,0.116211,0.896484,682.000000,-0.200272,-0.202179,0.247955,682.000000,15.449966,-27.000000,-100.650009,682.000000
6830.000000,-0.419922,0.123535,0.896972,683.000000,-0.017166,0.038147,0.064850,683.000000,17.549957,-27.000000,-100.650009,683.000000
6840.000000,-0.417969,0.132324,0.906250,684.000000,0.040054,0.160217,0.247955,684.000000,16.949966,-24.900009,-102.150009,684.000000
6850.000000,-0.411621,0.135254,0.904785,685.000000,0.467300,0.282288,0.308990,685.000000,16.949966,-25.800003,-100.950012,685.000000
6860.000000,-0.411133,0.132324,0.896972,686.000000,-0.200272,0.343323,0.308990,686.000000,16.349960,-25.800003,-100.950012,686.000000
6870.000000,-0.421875,0.145508,0.900879,687.000000,0.162125,0.343323,0.431061,687.000000,16.649963,-27.150009,-101.850006,687.000000
6880.000000,-0.406738,0.128418,0.911621,688.000000,-0.261307,0.099182,0.308990,688.000000,16.649963,-25.800003,-100.950012,688.000000
6890.000000,-0.412109,0.148926,0.899414,689.000000,0.223160,0.526428,0.247955,689.000000,17.699966,-25.800003,-100.950012,689.000000
6900.000000,-0.416504,0.127930,0.903808,690.000000,0.650406,0.221252,0.186920,690.000000,16.049957,-25.050003,-101.250000,690.000000
6910.000000,-0.418457,0.127441,0.896972,691.000000,-0.261307,0.282288,0.247955,691.000000,16.049957,-25.650009,-101.550003,691.000000
6920.000000,-0.411133,0.134277,0.905273,692.000000,-0.505447,-0.019073,0.980377,692.000000,16.349960,-25.650009,-101.550003,692.000000
6930.000000,-0.402832,0.137695,0.890625,693.000000,-0.444412,0.282288,-0.480652,693.000000,15.899963,-26.400009,-101.550003,693.000000
6940.000000,-0.410644,0.140625,0.883789,694.000000,0.040054,-0.141144,0.308990,694.000000,17.999954,-27.000000,-101.250000,694.000000
6950.000000,-0.418457,0.131348,0.909179,695.000000,0.406265,0.709534,-0.114441,695.000000,17.999954,-26.250000,-102.000000,695.000000
6960.000000,-0.416992,0.139648,0.902832,696.000000,0.040054,0.404358,0.308990,696.000000,15.149963,-26.250000,-102.000000,696.000000
6970.000000,-0.413574,0.125000,0.909179,697.000000,0.345230,-0.202179,0.186920,697.000000,17.549957,-25.050003,-101.250000,697.000000
6980.000000,-0.419434,0.132324,0.899902,698.000000,-0.017166,0.038147,-0.907898,698.000000,16.949966,-25.200012,-101.550003,698.000000
6990.000000,-0.406738,0.135742,0.894531,699.000000,0.345230,-0.141144,0.125885,699.000000,16.049957,-26.250000,-100.650009,699.000000
7000.000000,-0.411133,0.139160,0.898437,700.000000,0.528336,-0.019073,-0.236511,700.000000,16.049957,-26.700012,-100.500000,700.000000
7010.000000,-0.430664,0.133301,0.902832,701.000000,0.040054,0.404358,-0.297546,701.000000,17.549957,-26.700012,-100.500000,701.000000
7020.000000,-0.416016,0.125977,0.893554,702.000000,0.223160,-0.202179,-0.236511,702.000000,17.099960,-26.400009,-100.800003,702.000000
7030.000000,-0.417480,0.127441,0.898926,703.000000,0.223160,0.221252,-0.114441,703.000000,17.099960,-25.950012,-100.500000,703.000000
7040.000000,-0.410644,0.132324,0.903808,704.000000,-0.017166,-0.446320,0.186920,704.000000,17.699966,-25.950012,-100.500000,704.000000
7050.000000,-0.416992,0.135742,0.899414,705.000000,0.040054,-0.019073,0.247955,705.000000,16.799957,-25.050003,-102.000000,705.000000
7060.000000,-0.417969,0.123047,0.897461,706.000000,-0.200272,-0.263214,0.125885,706.000000,16.799957,-23.850006,-101.550003,706.000000
7070.000000,-0.412109,0.132812,0.892090,707.000000,-0.566483,0.282288,-0.175476,707.000000,15.149963,-23.850006,-101.550003,707.000000
7080.000000,-0.407715,0.133301,0.899414,708.000000,0.589371,-0.080109,-0.053406,708.000000,17.549957,-24.750000,-101.700012,708.000000
7090.000000,-0.417480,0.127930,0.904297,709.000000,-0.261307,0.038147,0.186920,709.000000,16.049957,-26.400009,-100.800003,709.000000
7100.000000,-0.419922,0.136230,0.899902,710.000000,0.528336,0.404358,-0.663757,710.000000,16.049957,-25.950012,-101.850006,710.000000
7110.000000,-0.412598,0.132324,0.897461,711.000000,-0.383377,0.099182,0.492096,711.000000,16.049957,-25.950012,-101.850006,711.000000
7120.000000,-0.410644,0.125977,0.908203,712.000000,0.467300,-0.324249,-0.297546,712.000000,17.099960,-27.450012,-100.800003,712.000000
7130.000000,-0.409668,0.126465,0.900390,713.000000,0.030518,0.099182,-0.602722,713.000000,17.099960,-24.450012,-102.150009,713.000000
7140.000000,-0.406738,0.127930,0.893066,714.000000,0.762939,-0.120163,-0.028610,714.000000,15.899963,-24.450012,-102.150009,714.000000
7150.000000,-0.411133,0.128906,0.896972,715.000000,0.091553,-0.242233,-0.394821,715.000000,15.899963,-26.550003,-102.000000,715.000000
7160.000000,-0.415039,0.140625,0.896484,716.000000,0.152588,-0.059128,-0.272751,716.000000,15.899963,-25.050003,-101.250000,716.000000
7170.000000,-0.415039,0.123535,0.906250,717.000000,0.274658,-0.181198,-0.150681,717.000000,16.649963,-25.050003,-101.250000,717.000000
7180.000000,-0.417969,0.133789,0.908203,718.000000,-0.453949,-0.181198,-0.211716,718.000000,16.349960,-25.800003,-100.950012,718.000000
7190.000000,-0.415527,0.125977,0.900879,719.000000,-0.392914,-0.547409,0.028610,719.000000,16.349960,-25.650009,-101.850006,719.000000
7200.000000,-0.420898,0.141113,0.898926,720.000000,0.213623,-0.669479,0.577927,720.000000,16.949966,-25.650009,-101.850006,720.000000
7210.000000,-0.425293,0.130859,0.895508,721.000000,-0.209808,-0.364304,-0.150681,721.000000,17.249954,-25.500000,-102.450012,721.000000
7220.000000,-0.409180,0.124512,0.902344,722.000000,0.030518,-0.181198,0.211716,722.000000,17.249954,-25.050003,-101.250000,722.000000
7230.000000,-0.410644,0.134277,0.894043,723.000000,0.152588,0.000000,0.455856,723.000000,14.999954,-25.800003,-100.950012,723.000000
7240.000000,-0.411621,0.135254,0.921875,724.000000,0.396729,0.364304,-0.272751,724.000000,16.199966,-26.400009,-102.150009,724.000000
7250.000000,-0.411133,0.138184,0.896972,725.000000,-0.453949,0.303268,0.028610,725.000000,16.199966,-27.000000,-102.450012,725.000000
7260.000000,-0.401367,0.139648,0.908691,726.000000,0.213623,0.181198,-0.089645,726.000000,16.799957,-27.000000,-102.450012,726.000000
7270.000000,-0.421387,0.136719,0.902832,727.000000,0.335693,-0.242233,0.455856,727.000000,16.649963,-25.650009,-102.150009,727.000000
7280.000000,-0.414551,0.136719,0.906250,728.000000,-0.270844,-0.059128,0.455856,728.000000,16.649963,-25.800003,-100.200012,728.000000
7290.000000,-0.397461,0.138184,0.884765,729.000000,-0.270844,-0.730515,-0.028610,729.000000,17.249954,-25.800003,-100.200012,729.000000
7300.000000,-0.408691,0.130859,0.896484,730.000000,0.030518,-0.791550,-0.150681,730.000000,16.949966,-26.250000,-100.200012,730.000000
7310.000000,-0.395996,0.106445,0.906738,731.000000,0.335693,-0.242233,0.089645,731.000000,16.949966,-26.550003,-100.950012,731.000000
7320.000000,-0.400879,0.123047,0.902344,732.000000,0.152588,0.059128,-0.150681,732.000000,15.899963,-26.550003,-100.950012,732.000000
7330.000000,-0.412598,0.130859,0.905273,733.000000,-0.209808,-0.120163,-0.089645,733.000000,16.799957,-26.250000,-101.700012,733.000000
7340.000000,-0.417969,0.135254,0.905761,734.000000,0.274658,0.303268,0.089645,734.000000,16.799957,-26.400009,-100.800003,734.000000
7350.000000,-0.427246,0.120117,0.896972,735.000000,0.823975,-0.120163,-0.272751,735.000000,16.199966,-26.400009,-100.800003,735.000000
7360.000000,-0.420898,0.131348,0.896484,736.000000,0.213623,0.364304,-0.577927,736.000000,16.799957,-24.750000,-100.650009,736.000000
7370.000000,-0.404297,0.114258,0.907715,737.000000,0.091553,0.181198,-0.150681,737.000000,16.799957,-25.950012,-101.550003,737.000000
7380.000000,-0.408691,0.137207,0.908691,738.000000,0.030518,0.242233,0.028610,738.000000,15.299957,-25.950012,-101.550003,738.000000
7390.000000,-0.426758,0.123047,0.909179,739.000000,-0.087738,-0.486374,0.028610,739.000000,16.199966,-25.650009,-101.850006,739.000000
7400.000000,-0.414062,0.136230,0.902344,740.000000,-0.820160,-0.181198,0.211716,740.000000,16.049957,-24.300003,-100.650009,740.000000
7410.000000,-0.416504,0.123047,0.895508,741.000000,-0.453949,0.000000,0.638962,741.000000,16.049957,-25.950012,-101.100006,741.000000
7420.000000,-0.419922,0.127930,0.906250,742.000000,0.030518,-0.425339,0.394821,742.000000,18.449966,-25.950012,-101.100006,742.000000
7430.000000,-0.416504,0.136230,0.906738,743.000000,0.396729,-0.669479,0.333786,743.000000,15.449966,-25.050003,-101.700012,743.000000
7440.000000,-0.416016,0.124023,0.911621,744.000000,0.457764,-0.364304,0.150681,744.000000,15.449966,-25.500000,-99.900009,744.000000
7450.000000,-0.410644,0.142578,0.904297,745.000000,-0.026703,-0.852585,0.333786,745.000000,15.149963,-25.500000,-99.900009,745.000000
7460.000000,-0.419922,0.123047,0.900390,746.000000,-0.270844,-0.425339,0.028610,746.000000,16.349960,-25.500000,-101.700012,746.000000
7470.000000,-0.415527,0.143555,0.902832,747.000000,0.762939,-0.425339,0.150681,747.000000,16.349960,-25.650009,-101.850006,747.000000
7480.000000,-0.400391,0.126953,0.893554,748.000000,0.213623,-0.303268,0.150681,748.000000,15.449966,-25.650009,-101.850006,748.000000
7490.000000,-0.404297,0.140137,0.901855,749.000000,0.030518,-0.730515,0.089645,749.000000,17.849960,-25.800003,-100.950012,749.000000
7500.000000,-0.408691,0.139160,0.901855,750.000000,-0.209808,0.242233,-0.150681,750.000000,17.849960,-26.400009,-101.850006,750.000000
7510.000000,-0.399414,0.134277,0.913574,751.000000,0.030518,0.425339,-0.394821,751.000000,16.949966,-26.400009,-101.850006,751.000000
7520.000000,-0.427734,0.132324,0.910156,752.000000,0.335693,-0.120163,0.089645,752.000000,16.049957,-26.250000,-101.700012,752.000000
7530.000000,-0.413574,0.134766,0.902344,753.000000,0.579834,0.242233,-0.089645,753.000000,16.199966,-24.150009,-101.550003,753.000000
7540.000000,-0.420410,0.138184,0.906738,754.000000,-0.392914,0.120163,-0.089645,754.000000,16.949966,-27.000000,-100.650009,754.000000
7550.000000,-0.406250,0.121094,0.909668,755.000000,-0.514984,-0.242233,-0.089645,755.000000,18.149963,-27.000000,-101.250000,755.000000
7560.000000,-0.408203,0.137207,0.907715,756.000000,-0.209808,0.425339,0.089645,756.000000,18.149963,-25.650009,-100.500000,756.000000
7570.000000,-0.423340,0.141113,0.902344,757.000000,-0.698090,0.000000,-0.089645,757.000000,17.099960,-25.650009,-100.500000,757.000000
7580.000000,-0.408203,0.136719,0.905761,758.000000,0.091553,0.059128,0.516891,758.000000,17.999954,-26.700012,-102.150009,758.000000
7590.000000,-0.404297,0.138184,0.907226,759.000000,0.152588,-0.547409,-0.211716,759.000000,17.999954,-24.300003,-100.200012,759.000000
7600.000000,-0.413086,0.123047,0.898437,760.000000,0.335693,0.000000,-0.211716,760.000000,16.949966,-24.300003,-100.200012,760.000000
7610.000000,-0.406250,0.131348,0.907226,761.000000,0.396729,0.059128,-0.455856,761.000000,16.049957,-27.750000,-101.250000,761.000000
7620.000000,-0.412598,0.137695,0.901855,762.000000,0.823975,0.242233,0.272751,762.000000,16.049957,-26.400009,-101.100006,762.000000
7630.000000,-0.399902,0.138184,0.908203,763.000000,0.823975,0.059128,0.089645,763.000000,16.799957,-26.400009,-101.100006,763.000000
7640.000000,-0.415039,0.130859,0.904785,764.000000,-0.026703,0.000000,-0.150681,764.000000,17.099960,-25.950012,-102.150009,764.000000
7650.000000,-0.427246,0.121582,0.903320,765.000000,0.152588,-0.181198,-0.455856,765.000000,17.099960,-26.400009,-100.050003,765.000000
7660.000000,-0.416992,0.132324,0.901367,766.000000,0.091553,0.242233,-0.333786,766.000000,17.849960,-26.400009,-100.050003,766.000000
7670.000000,-0.417969,0.140137,0.910156,767.000000,-0.453949,0.547409,-0.516891,767.000000,16.799957,-24.900009,-100.800003,767.000000
7680.000000,-0.411621,0.124512,0.907715,768.000000,-0.026703,-0.120163,-0.455856,768.000000,16.799957,-27.450012,-100.050003,768.000000
7690.000000,-0.412109,0.126465,0.901367,769.000000,0.152588,-0.059128,-0.333786,769.000000,15.899963,-27.450012,-100.050003,769.000000
7700.000000,-0.414062,0.136719,0.917969,770.000000,-0.270844,0.059128,-0.394821,770.000000,16.949966,-26.250000,-101.700012,770.000000
7710.000000,-0.413086,0.130859,0.903320,771.000000,0.274658,0.303268,0.028610,771.000000,16.199966,-26.250000,-101.250000,771.000000
7720.000000,-0.400391,0.122559,0.899414,772.000000,0.152588,-0.242233,-0.089645,772.000000,16.199966,-24.300003,-101.700012,772.000000
7730.000000,-0.410156,0.133301,0.917480,773.000000,-0.087738,0.181198,0.516891,773.000000,18.449966,-24.300003,-101.700012,773.000000
7740.000000,-0.419434,0.139160,0.906250,774.000000,-0.087738,-0.913620,0.150681,774.000000,16.349960,-27.300003,-101.250000,774.000000
7750.000000,-0.402344,0.122559,0.914551,775.000000,-0.209808,0.303268,-0.028610,775.000000,16.349960,-24.900009,-103.200012,775.000000
7760.000000,-0.413574,0.132324,0.906738,776.000000,0.091553,-0.059128,0.028610,776.000000,17.549957,-24.900009,-103.200012,776.000000
7770.000000,-0.409180,0.125488,0.911133,777.000000,-0.087738,0.059128,0.150681,777.000000,17.249954,-25.950012,-100.800003,777.000000
7780.000000,-0.417480,0.121582,0.909668,778.000000,0.152588,0.059128,0.333786,778.000000,17.249954,-25.500000,-101.250000,778.000000
7790.000000,-0.407226,0.135742,0.907226,779.000000,-0.026703,0.000000,0.089645,779.000000,16.949966,-25.500000,-101.250000,779.000000
7800.000000,-0.422363,0.132324,0.904785,780.000000,-0.331879,0.059128,-0.394821,780.000000,15.899963,-25.500000,-101.700012,780.000000
7810.000000,-0.403809,0.141113,0.900390,781.000000,-0.637054,0.000000,0.028610,781.000000,15.899963,-26.550003,-101.250000,781.000000
7820.000000,-0.410644,0.125488,0.914551,782.000000,0.396729,-0.120163,-0.455856,782.000000,16.949966,-26.550003,-101.250000,782.000000
7830.000000,-0.412598,0.137695,0.895996,783.000000,-0.270844,0.486374,0.028610,783.000000,16.799957,-25.050003,-101.700012,783.000000
7840.000000,-0.416504,0.133789,0.912597,784.000000,0.213623,0.242233,-0.211716,784.000000,16.799957,-25.200012,-101.100006,784.000000
7850.000000,-0.404785,0.140137,0.893066,785.000000,-0.514984,0.486374,-0.577927,785.000000,16.799957,-25.200012,-101.100006,785.000000
7860.000000,-0.409668,0.116699,0.913086,786.000000,-0.576019,0.303268,0.211716,786.000000,15.899963,-26.400009,-101.100006,786.000000
7870.000000,-0.403809,0.140625,0.905273,787.000000,-0.270844,-0.303268,-0.028610,787.000000,16.799957,-25.800003,-100.650009,787.000000
7880.000000,-0.408203,0.138184,0.896484,788.000000,-0.759125,-0.303268,-0.028610,788.000000,17.999954,-24.900009,-101.550003,788.000000
7890.000000,-0.415527,0.142090,0.893554,789.000000,-0.331879,0.547409,0.089645,789.000000,15.749954,-25.050003,-100.650009,789.000000
7900.000000,-0.413086,0.136230,0.904297,790.000000,0.640869,0.364304,-0.211716,790.000000,15.749954,-24.900009,-100.800003,790.000000
7910.000000,-0.411621,0.148926,0.902344,791.000000,0.396729,0.181198,-0.089645,791.000000,17.249954,-24.900009,-100.800003,791.000000
7920.000000,-0.401855,0.126953,0.922363,792.000000,-0.209808,-0.181198,0.577927,792.000000,17.249954,-25.500000,-99.150009,792.000000
7930.000000,-0.418457,0.124023,0.899414,793.000000,-0.270844,0.303268,0.211716,793.000000,17.249954,-25.800003,-102.000000,793.000000
7940.000000,-0.411621,0.145996,0.898926,794.000000,0.335693,-0.303268,-0.211716,794.000000,16.049957,-25.800003,-102.000000,794.000000
7950.000000,-0.413086,0.130371,0.912597,795.000000,0.335693,0.181198,-0.028610,795.000000,17.249954,-24.150009,-101.550003,795.000000
7960.000000,-0.422363,0.114258,0.911621,796.000000,0.762939,0.059128,-0.333786,796.000000,17.249954,-25.050003,-101.700012,796.000000
7970.000000,-0.409668,0.127930,0.908203,797.000000,0.885010,0.242233,-0.028610,797.000000,16.799957,-25.050003,-101.700012,797.000000
7980.000000,-0.416504,0.131836,0.907226,798.000000,-0.209808,-0.364304,-0.516891,798.000000,15.449966,-25.950012,-102.150009,798.000000
7990.000000,-0.416504,0.121582,0.895019,799.000000,0.335693,0.000000,0.211716,799.000000,15.449966,-23.550003,-101.250000,799.000000
8000.000000,-0.415039,0.129395,0.900390,800.000000,0.030518,0.059128,-0.028610,800.000000,16.199966,-23.550003,-101.250000,800.000000
8010.000000,-0.417480,0.136230,0.912109,801.000000,-0.148773,-0.059128,-0.455856,801.000000,17.849960,-25.500000,-101.700012,801.000000
8020.000000,-0.412109,0.126465,0.900879,802.000000,0.030518,0.000000,0.028610,802.000000,16.049957,-25.950012,-102.600006,802.000000
8030.000000,-0.412109,0.121094,0.904785,803.000000,0.213623,-0.242233,-0.028610,803.000000,16.049957,-24.900009,-100.500000,803.000000
8040.000000,-0.415039,0.136719,0.910644,804.000000,-0.026703,-0.059128,0.150681,804.000000,16.199966,-24.900009,-100.500000,804.000000
8050.000000,-0.414062,0.129883,0.905273,805.000000,0.213623,-0.181198,0.333786,805.000000,17.249954,-25.050003,-101.250000,805.000000
8060.000000,-0.414062,0.134766,0.910156,806.000000,0.701904,0.000000,-0.272751,806.000000,17.249954,-25.800003,-101.250000,806.000000
8070.000000,-0.407715,0.130371,0.913574,807.000000,0.335693,-0.181198,-0.028610,807.000000,17.249954,-25.800003,-101.250000,807.000000
8080.000000,-0.420410,0.140625,0.905761,808.000000,0.152588,-0.059128,-0.272751,808.000000,15.299957,-24.750000,-100.950012,808.000000
8090.000000,-0.404297,0.133789,0.919922,809.000000,0.152588,0.059128,-0.516891,809.000000,15.299957,-25.950012,-102.600006,809.000000
8100.000000,-0.416504,0.134277,0.910156,810.000000,0.518799,-0.059128,-0.089645,810.000000,15.749954,-25.950012,-102.600006,810.000000
8110.000000,-0.416016,0.125488,0.898926,811.000000,0.030518,-0.181198,-0.272751,811.000000,15.749954,-25.200012,-102.150009,811.000000
8120.000000,-0.418457,0.131836,0.902832,812.000000,-0.087738,0.486374,0.333786,812.000000,15.749954,-25.950012,-100.800003,812.000000
8130.000000,-0.416016,0.129883,0.905273,813.000000,0.213623,0.000000,0.028610,813.000000,16.349960,-25.950012,-100.800003,813.000000
8140.000000,-0.411133,0.123047,0.904785,814.000000,0.091553,0.000000,0.333786,814.000000,15.149963,-25.950012,-100.800003,814.000000
8150.000000,-0.405273,0.130371,0.898926,815.000000,-0.148773,0.242233,0.089645,815.000000,15.149963,-26.550003,-101.250000,815.000000
8160.000000,-0.408203,0.124023,0.889648,816.000000,-0.026703,-0.120163,0.211716,816.000000,15.449966,-26.550003,-101.250000,816.000000
8170.000000,-0.417480,0.125000,0.897949,817.000000,-0.392914,-0.364304,-0.028610,817.000000,17.699966,-25.800003,-99.900009,817.000000
8180.000000,-0.416992,0.128906,0.898926,818.000000,-0.331879,-0.181198,0.211716,818.000000,17.699966,-26.250000,-101.700012,818.000000
8190.000000,-0.407226,0.128906,0.908691,819.000000,-0.087738,0.364304,0.394821,819.000000,17.099960,-26.250000,-101.700012,819.000000
8200.000000,-0.395996,0.128418,0.900879,820.000000,0.091553,-0.547409,0.455856,820.000000,14.849960,-25.950012,-101.850006,820.000000
8210.000000,-0.419434,0.135254,0.902344,821.000000,0.213623,0.364304,0.028610,821.000000,14.849960,-26.250000,-99.900009,821.000000
8220.000000,-0.422363,0.129395,0.892090,822.000000,0.091553,0.000000,0.516891,822.000000,14.699966,-26.250000,-99.900009,822.000000
8230.000000,-0.414062,0.132324,0.900879,823.000000,0.213623,0.059128,-0.028610,823.000000,16.199966,-26.400009,-102.600006,823.000000
8240.000000,-0.423340,0.131836,0.894531,824.000000,-0.270844,0.181198,-0.089645,824.000000,16.199966,-25.800003,-100.950012,824.000000
8250.000000,-0.405762,0.133301,0.900390,825.000000,-0.087738,0.364304,-0.150681,825.000000,16.049957,-25.800003,-100.950012,825.000000
8260.000000,-0.408203,0.141113,0.908203,826.000000,0.457764,-0.059128,0.028610,826.000000,16.349960,-27.450012,-101.550003,826.000000
8270.000000,-0.409180,0.144531,0.901367,827.000000,0.213623,0.242233,0.272751,827.000000,16.349960,-26.400009,-100.800003,827.000000
8280.000000,-0.416504,0.121094,0.899414,828.000000,-0.087738,0.059128,0.211716,828.000000,16.949966,-26.400009,-100.800003,828.000000
8290.000000,-0.417480,0.128906,0.894043,829.000000,0.030518,-0.120163,-0.211716,829.000000,16.049957,-25.500000,-100.950012,829.000000
8300.000000,-0.400879,0.124023,0.909179,830.000000,0.091553,0.120163,-0.028610,830.000000,16.049957,-25.200012,-101.550003,830.000000
8310.000000,-0.400879,0.129883,0.902344,831.000000,-0.209808,0.059128,-0.272751,831.000000,17.099960,-25.200012,-101.550003,831.000000
8320.000000,-0.402344,0.135742,0.898926,832.000000,-0.148773,-0.364304,-0.028610,832.000000,16.199966,-27.150009,-100.800003,832.000000
8330.000000,-0.419434,0.125488,0.898926,833.000000,-0.148773,0.000000,-0.333786,833.000000,16.199966,-26.550003,-100.950012,833.000000
8340.000000,-0.410644,0.131348,0.901855,834.000000,0.030518,0.486374,0.150681,834.000000,16.199966,-25.500000,-100.950012,834.000000
8350.000000,-0.411621,0.131836,0.892090,835.000000,0.396729,-0.059128,-0.028610,835.000000,16.199966,-25.500000,-100.950012,835.000000
8360.000000,-0.416016,0.122559,0.902832,836.000000,0.030518,-0.486374,-0.089645,836.000000,16.349960,-25.500000,-100.950012,836.000000
8370.000000,-0.417969,0.136719,0.903320,837.000000,-0.026703,-0.120163,-0.394821,837.000000,16.349960,-25.950012,-101.550003,837.000000
8380.000000,-0.408691,0.133301,0.906250,838.000000,0.457764,-0.120163,-0.028610,838.000000,16.349960,-25.950012,-101.550003,838.000000
8390.000000,-0.406738,0.131836,0.896972,839.000000,0.030518,-0.059128,0.089645,839.000000,16.649963,-25.650009,-100.800003,839.000000
8400.000000,-0.413574,0.132812,0.917969,840.000000,-0.881195,0.059128,0.150681,840.000000,16.649963,-25.800003,-100.950012,840.000000
8410.000000,-0.403809,0.124023,0.900390,841.000000,0.091553,-0.181198,0.089645,841.000000,16.949966,-25.800003,-100.950012,841.000000
8420.000000,-0.419434,0.138184,0.909179,842.000000,0.030518,-0.059128,0.150681,842.000000,16.349960,-25.800003,-100.950012,842.000000
8430.000000,-0.407226,0.135742,0.916015,843.000000,0.030518,-0.303268,0.455856,843.000000,16.349960,-24.900009,-101.100006,843.000000
8440.000000,-0.422363,0.133301,0.898437,844.000000,0.091553,-0.486374,0.944138,844.000000,17.849960,-24.900009,-101.100006,844.000000
8450.000000,-0.420898,0.137695,0.905273,845.000000,0.396729,-0.852585,-0.089645,845.000000,16.949966,-25.200012,-101.850006,845.000000
8460.000000,-0.427734,0.124023,0.902832,846.000000,0.213623,-0.120163,0.150681,846.000000,16.949966,-25.500000,-102.450012,846.000000
8470.000000,-0.404785,0.131836,0.898437,847.000000,0.518799,-0.059128,-0.089645,847.000000,16.799957,-25.500000,-102.450012,847.000000
8480.000000,-0.420410,0.135742,0.896484,848.000000,-0.270844,-0.486374,-0.333786,848.000000,16.949966,-25.650009,-102.600006,848.000000
8490.000000,-0.412598,0.135742,0.909668,849.000000,-0.148773,-0.120163,-0.028610,849.000000,15.899963,-25.500000,-102.000000,849.000000
8500.000000,-0.398437,0.125000,0.905273,850.000000,0.091553,-0.669479,-0.272751,850.000000,15.899963,-24.750000,-101.250000,850.000000
8510.000000,-0.413574,0.138184,0.905761,851.000000,0.457764,0.181198,-0.272751,851.000000,15.899963,-24.750000,-101.250000,851.000000
8520.000000,-0.424316,0.131348,0.906738,852.000000,-0.209808,0.059128,-0.150681,852.000000,16.349960,-26.550003,-100.650009,852.000000
8530.000000,-0.406250,0.134766,0.909668,853.000000,0.030518,0.242233,-0.333786,853.000000,16.349960,-25.200012,-102.150009,853.000000
8540.000000,-0.415527,0.137207,0.910156,854.000000,0.152588,-0.059128,0.211716,854.000000,16.649963,-25.200012,-102.150009,854.000000
8550.000000,-0.412109,0.129395,0.909179,855.000000,-0.331879,0.242233,-0.211716,855.000000,16.649963,-25.800003,-100.950012,855.000000
8560.000000,-0.418945,0.139648,0.896484,856.000000,-0.087738,-0.852585,0.272751,856.000000,16.649963,-26.550003,-101.700012,856.000000
8570.000000,-0.410644,0.128418,0.918457,857.000000,-0.820160,0.242233,0.028610,857.000000,17.699966,-26.550003,-101.700012,857.000000
8580.000000,-0.411133,0.129395,0.905761,858.000000,-0.331879,0.608444,0.211716,858.000000,17.549957,-27.000000,-102.750000,858.000000
8590.000000,-0.422851,0.141602,0.912109,859.000000,0.030518,-0.120163,0.211716,859.000000,17.549957,-25.950012,-101.100006,859.000000
8600.000000,-0.407226,0.136230,0.902832,860.000000,0.091553,0.547409,-0.211716,860.000000,16.799957,-25.950012,-101.100006,860.000000
8610.000000,-0.423340,0.139160,0.898437,861.000000,0.640869,0.242233,0.028610,861.000000,17.099960,-24.900009,-102.150009,861.000000
8620.000000,-0.420898,0.135742,0.912597,862.000000,0.885010,-0.608444,0.333786,862.000000,16.649963,-25.650009,-100.800003,862.000000
8630.000000,-0.424805,0.134766,0.907715,863.000000,0.274658,-0.547409,-0.150681,863.000000,16.349960,-26.250000,-101.250000,863.000000
8640.000000,-0.409668,0.126465,0.886719,864.000000,0.762939,0.000000,-0.516891,864.000000,16.349960,-27.150009,-100.800003,864.000000
8650.000000,-0.411133,0.135742,0.891113,865.000000,0.518799,0.059128,-0.272751,865.000000,16.349960,-25.950012,-102.600006,865.000000
8660.000000,-0.410156,0.135254,0.898437,866.000000,-0.209808,0.425339,-0.761032,866.000000,16.949966,-25.950012,-102.600006,866.000000
8670.000000,-0.406738,0.131836,0.912109,867.000000,-0.331879,-0.059128,-0.272751,867.000000,15.149963,-24.750000,-101.250000,867.000000
8680.000000,-0.411133,0.130371,0.907226,868.000000,-0.453949,-0.120163,-0.272751,868.000000,15.149963,-26.250000,-99.900009,868.000000
8690.000000,-0.418457,0.118652,0.903808,869.000000,-0.270844,0.120163,0.028610,869.000000,17.099960,-26.250000,-99.900009,869.000000
8700.000000,-0.416504,0.133301,0.899414,870.000000,-0.209808,0.486374,0.211716,870.000000,16.199966,-25.950012,-100.500000,870.000000
8710.000000,-0.414551,0.132812,0.900879,871.000000,-0.392914,0.059128,0.455856,871.000000,16.199966,-26.250000,-100.650009,871.000000
8720.000000,-0.419434,0.141113,0.905761,872.000000,-0.148773,0.059128,-0.272751,872.000000,17.549957,-26.250000,-100.650009,872.000000
8730.000000,-0.417480,0.130859,0.893066,873.000000,-0.087738,-0.059128,-0.150681,873.000000,16.199966,-25.650009,-102.150009,873.000000
8740.000000,-0.412109,0.133301,0.899902,874.000000,-0.331879,-0.425339,0.699997,874.000000,16.199966,-25.800003,-101.250000,874.000000
8750.000000,-0.416016,0.123047,0.918457,875.000000,-0.209808,0.000000,-0.272751,875.000000,18.149963,-25.800003,-101.250000,875.000000
8760.000000,-0.414062,0.132324,0.915527,876.000000,-0.209808,-0.364304,0.150681,876.000000,16.649963,-26.700012,-101.550003,876.000000
8770.000000,-0.409180,0.129883,0.892090,877.000000,-0.087738,-0.242233,0.028610,877.000000,16.649963,-24.300003,-100.950012,877.000000
8780.000000,-0.396973,0.141602,0.903320,878.000000,-0.148773,-0.181198,-0.028610,878.000000,15.749954,-24.300003,-100.950012,878.000000
8790.000000,-0.413086,0.128418,0.903320,879.000000,-0.026703,0.000000,-0.272751,879.000000,16.199966,-25.200012,-100.500000,879.000000
8800.000000,-0.409180,0.134277,0.908691,880.000000,0.579834,-0.181198,0.028610,880.000000,16.949966,-25.050003,-100.650009,880.000000
8810.000000,-0.414551,0.129395,0.893066,881.000000,0.030518,0.425339,0.211716,881.000000,16.949966,-25.500000,-101.250000,881.000000
8820.000000,-0.412109,0.128906,0.893554,882.000000,-0.392914,0.181198,0.028610,882.000000,15.449966,-25.500000,-101.250000,882.000000
8830.000000,-0.421875,0.136230,0.909668,883.000000,0.152588,-0.059128,-0.089645,883.000000,17.699966,-25.050003,-101.700012,883.000000
8840.000000,-0.410156,0.134277,0.908203,884.000000,-0.576019,0.364304,-0.089645,884.000000,17.699966,-26.550003,-100.650009,884.000000
8850.000000,-0.416992,0.139648,0.901367,885.000000,0.152588,0.486374,-0.028610,885.000000,15.899963,-26.550003,-100.650009,885.000000
8860.000000,-0.422363,0.134766,0.905273,886.000000,-0.209808,-0.974655,0.211716,886.000000,16.649963,-26.550003,-101.250000,886.000000
8870.000000,-0.427246,0.143066,0.910156,887.000000,0.030518,-0.059128,0.089645,887.000000,16.649963,-24.300003,-100.200012,887.000000
8880.000000,-0.406738,0.118652,0.897461,888.000000,-0.026703,-0.303268,-0.150681,888.000000,16.199966,-24.300003,-100.200012,888.000000
8890.000000,-0.396973,0.126465,0.898437,889.000000,0.640869,-0.303268,0.577927,889.000000,16.949966,-25.050003,-99.900009,889.000000
8900.000000,-0.401367,0.149414,0.901855,890.000000,0.396729,0.181198,0.455856,890.000000,16.949966,-26.550003,-101.700012,890.000000
8910.000000,-0.417480,0.137207,0.907715,891.000000,-0.637054,-0.242233,0.089645,891.000000,16.049957,-26.550003,-101.700012,891.000000
8920.000000,-0.415527,0.133301,0.900390,892.000000,0.152588,0.242233,-0.272751,892.000000,16.349960,-24.450012,-101.100006,892.000000
8930.000000,-0.416016,0.131348,0.902832,893.000000,0.762939,0.059128,-0.028610,893.000000,17.699966,-26.700012,-100.500000,893.000000
8940.000000,-0.427246,0.129395,0.910156,894.000000,0.640869,0.547409,-0.150681,894.000000,16.799957,-24.300003,-101.250000,894.000000
8950.000000,-0.421387,0.136719,0.912597,895.000000,-0.026703,0.425339,-0.455856,895.000000,16.349960,-25.650009,-101.550003,895.000000
