icmT,accX,accY,accZ,accT,gyrX,gyrY,gyrZ,gyrT,magX,magY,magZ,magT,accX_,accY_,accZ_,gyrX_,gyrY_,gyrZ_,magX_,magY_,magZ_,roll,pitch,yaw,roll_,pitch_,yaw_
0.000000,0.034180,-1.097168,-0.049316,0.000000,-42.541504,24.105072,16.902924,0.000000,86.849960,34.649963,-77.400009,0.000000,0.000000,0.000000,0.000000,-40.692787,23.057543,16.168377,0.715492,0.285455,-0.637641,0.000000,0.000000,0.000000,0.000000,0.000000,0.000000
10.000000,0.037109,-1.105957,-0.073242,1.000000,-44.067383,24.044037,17.330170,1.000000,86.849960,34.799957,-75.900009,1.000000,0.000000,0.000000,0.000000,-38.538719,20.951584,15.141257,0.716673,0.286198,-0.635980,3.430164,-3.168139,1.068629,3.430164,-3.168139,1.068629
20.000000,0.036621,-1.103515,-0.066895,2.000000,-45.471191,24.593353,18.184662,2.000000,86.849960,34.799957,-75.900009,2.000000,0.000000,0.000000,0.000000,-36.305401,19.529337,14.552931,0.717837,0.286931,-0.634335,6.783351,-6.259159,2.119966,6.783351,-6.259159,2.119966
30.000000,0.042480,-1.121094,-0.062988,3.000000,-45.959473,24.471283,18.489838,3.000000,87.599960,33.599960,-77.550003,3.000000,0.032599,-0.997933,-0.055377,-33.249039,17.512009,13.434191,0.718665,0.286755,-0.633477,6.503903,-5.620049,3.152289,6.503903,-5.620049,3.152289
40.000000,0.036133,-1.124511,-0.061035,4.000000,-48.400879,23.799896,19.527435,4.000000,87.599960,33.299957,-75.900009,4.000000,0.033103,-0.997872,-0.056178,-32.195152,15.074583,13.060398,0.719384,0.285481,-0.633235,6.220456,-4.968875,4.157855,6.220456,-4.968875,4.157855
50.000000,0.033691,-1.109375,-0.079102,5.000000,-50.048828,23.616791,19.588470,5.000000,86.849960,33.299957,-75.900009,5.000000,0.033288,-0.997834,-0.056740,-30.350235,13.254498,11.734910,0.720236,0.283857,-0.632997,5.942293,-4.313929,5.141892,5.942293,-4.313929,5.141892
60.000000,0.033203,-1.104004,-0.072754,6.000000,-53.344727,23.921967,20.442963,6.000000,87.299957,31.349960,-75.450012,6.000000,0.033168,-0.997785,-0.057664,-30.123829,12.006139,11.236753,0.721212,0.282022,-0.632706,5.661184,-3.638721,6.109500,5.661184,-3.638721,6.109500
70.000000,0.013672,-1.091797,-0.094727,7.000000,-59.020996,24.166107,20.076752,7.000000,87.299957,32.549957,-74.100006,7.000000,0.032637,-0.997722,-0.059047,-32.079769,10.760169,9.570836,0.722458,0.279878,-0.632237,5.388679,-2.919802,7.060209,5.388679,-2.919802,7.060209
80.000000,0.023926,-1.052734,-0.104004,8.000000,-65.490723,25.081635,20.442963,8.000000,86.549957,32.549957,-74.100006,8.000000,0.031638,-0.997627,-0.061144,-34.507164,10.221688,8.710989,0.723933,0.277972,-0.631390,5.116892,-2.149452,8.000570,5.116892,-2.149452,8.000570
90.000000,0.045410,-1.034668,-0.129395,9.000000,-69.396973,26.790619,22.335052,9.000000,88.349960,29.849960,-74.100006,9.000000,0.030753,-0.997460,-0.064247,-34.145699,10.449341,9.350902,0.725592,0.276117,-0.630298,4.830990,-1.352665,8.938163,4.830990,-1.352665,8.938163
100.000000,0.035645,-1.036133,-0.162109,10.000000,-71.044922,30.452728,23.372650,10.000000,88.349960,32.849960,-72.300003,10.000000,0.030422,-0.997174,-0.068694,-31.525774,12.486401,9.083714,0.727677,0.274001,-0.628816,4.540267,-0.550556,9.891404,4.540267,-0.550556,9.891404
110.000000,0.048340,-1.060058,-0.177734,11.000000,-72.082520,35.396576,22.640228,11.000000,86.549957,32.849960,-72.300003,11.000000,0.030548,-0.996739,-0.074693,-28.425652,15.529117,7.111816,0.730023,0.272477,-0.626756,4.262696,0.252576,10.871854,4.262696,0.252576,10.871854
120.000000,0.022461,-1.052734,-0.175781,12.000000,-72.814941,39.974213,22.335052,12.000000,88.499954,31.049957,-72.300003,12.000000,0.030845,-0.996162,-0.081915,-25.189787,17.904150,5.689384,0.732338,0.271687,-0.624394,3.994030,1.055129,11.875177,3.994030,1.055129,11.875177
130.000000,0.017578,-1.069336,-0.185547,13.000000,-72.692871,42.598724,20.748138,13.000000,88.499954,30.899963,-72.900009,13.000000,0.030874,-0.995479,-0.089824,-21.316504,18.141344,3.140356,0.734713,0.270757,-0.622003,3.746346,1.849536,12.881727,3.746346,1.849536,12.881727
140.000000,0.027832,-1.061035,-0.173828,14.000000,-73.120117,43.575287,19.771576,14.000000,87.449966,30.899963,-72.900009,14.000000,0.030521,-0.994722,-0.097967,-18.217438,16.713486,1.380018,0.737006,0.269424,-0.619865,3.512806,2.641617,13.875559,3.512806,2.641617,13.875559
150.000000,0.013184,-1.078125,-0.176270,15.000000,-73.059082,43.453217,18.367767,15.000000,87.749954,29.699966,-71.400009,15.000000,0.029923,-0.993924,-0.105926,-14.845967,14.292982,-0.644543,0.739063,0.267804,-0.618116,3.297035,3.426429,14.846663,3.297035,3.426429,14.846663
160.000000,0.017090,-1.085937,-0.165527,16.000000,-72.387695,41.316986,17.757416,16.000000,87.599960,30.149963,-70.050003,16.000000,0.029055,-0.993128,-0.113372,-11.121224,10.097639,-1.735556,0.741162,0.265950,-0.616400,3.090586,4.197550,15.775658,3.090586,4.197550,15.775658
170.000000,0.023437,-1.068847,-0.158203,17.000000,-72.937012,38.387299,17.879486,17.000000,87.599960,29.549957,-70.200012,17.000000,0.028012,-0.992373,-0.120043,-8.838806,5.461869,-2.026655,0.743470,0.264048,-0.614436,2.885893,4.966328,16.655157,2.885893,4.966328,16.655157
180.000000,0.017578,-1.062988,-0.171875,18.000000,-74.157715,35.396576,17.513275,18.000000,87.449966,29.549957,-70.200012,18.000000,0.026958,-0.991674,-0.125917,-7.359259,1.141229,-2.752407,0.745825,0.262172,-0.612382,2.687688,5.738473,17.485409,2.687688,5.738473,17.485409
190.000000,-0.007812,-1.048340,-0.184082,19.000000,-76.538086,31.856537,18.001556,19.000000,88.499954,29.399963,-67.500000,19.000000,0.025788,-0.991005,-0.131315,-5.977700,-3.341809,-2.588694,0.748307,0.260380,-0.610114,2.487331,6.513375,18.261675,2.487331,6.513375,18.261675
200.000000,0.000488,-1.022949,-0.245117,20.000000,-78.674316,26.851654,17.879486,20.000000,90.449966,28.649963,-67.200012,20.000000,0.024308,-0.990278,-0.136961,-6.676033,-8.832238,-3.012945,0.751445,0.258636,-0.606991,2.290488,7.311603,18.969439,2.290488,7.311603,18.969439
210.000000,-0.007812,-1.036621,-0.255371,21.000000,-79.345703,27.034760,17.330170,21.000000,88.799957,26.999954,-67.350006,21.000000,0.022444,-0.989369,-0.143686,-4.779305,-8.859940,-3.798419,0.755357,0.256502,-0.603027,2.100834,8.108224,19.659483,2.100834,8.108224,19.659483
220.000000,0.005371,-1.031250,-0.259766,22.000000,-79.895020,26.485443,17.879486,22.000000,88.799957,26.699966,-65.700012,22.000000,0.020294,-0.988227,-0.151645,-2.909019,-9.552399,-3.451866,0.759626,0.253664,-0.598851,1.907127,8.903512,20.324337,1.907127,8.903512,20.324337
230.000000,0.007324,-1.018066,-0.272949,23.000000,-78.491211,25.936127,17.513275,23.000000,88.199966,26.699966,-65.700012,23.000000,0.018119,-0.986859,-0.160563,0.681489,-10.149885,-3.997476,0.763938,0.250375,-0.594736,1.718391,9.679478,20.964348,1.718391,9.679478,20.964348
240.000000,-0.010742,-1.033691,-0.275391,24.000000,-76.538086,25.753021,16.292572,24.000000,88.649963,25.949966,-65.100006,24.000000,0.015976,-0.985276,-0.170222,4.489586,-10.307920,-5.298949,0.768091,0.246954,-0.590805,1.542935,10.432001,21.583761,1.542935,10.432001,21.583761
250.000000,0.007812,-1.029297,-0.270508,25.000000,-74.523926,24.471283,14.034271,25.000000,88.649963,26.549957,-64.500000,25.000000,0.013804,-0.983522,-0.180260,8.015321,-11.464458,-7.462249,0.772001,0.243600,-0.587089,1.390623,11.161413,22.172523,1.390623,11.161413,22.172523
260.000000,0.015625,-1.029785,-0.267090,26.000000,-71.533203,23.555756,12.264252,26.000000,89.399963,26.549957,-64.500000,26.000000,0.011858,-0.981669,-0.190224,12.145119,-12.129044,-8.946356,0.775655,0.240632,-0.583486,1.256463,11.858543,22.735092,1.256463,11.858543,22.735092
270.000000,0.012695,-1.024414,-0.260742,27.000000,-69.152832,22.823334,11.653900,27.000000,88.499954,28.049957,-64.200012,27.000000,0.010364,-0.979795,-0.199734,15.294064,-12.516142,-9.161199,0.778892,0.238503,-0.580037,1.129246,12.529510,23.274290,1.129246,12.529510,23.274290
280.000000,0.009277,-1.001953,-0.251953,28.000000,-68.176270,21.968842,11.531830,28.000000,88.499954,25.649963,-63.600006,28.000000,0.009256,-0.977980,-0.208495,16.774675,-12.939797,-8.856095,0.781605,0.237253,-0.576893,1.004494,13.187741,23.790150,1.004494,13.187741,23.790150
290.000000,0.022461,-0.987793,-0.269043,29.000000,-67.565918,20.565033,10.982513,29.000000,87.899963,25.649963,-63.600006,29.000000,0.008507,-0.976251,-0.216476,17.715715,-13.803981,-8.952147,0.783887,0.236204,-0.574220,0.886760,13.836185,24.278465,0.886760,13.836185,24.278465
300.000000,0.012695,-0.980957,-0.273926,30.000000,-66.589355,20.503998,10.555267,30.000000,89.249954,25.499954,-62.700012,30.000000,0.008156,-0.974572,-0.223926,18.860096,-13.258104,-8.889438,0.785926,0.234971,-0.571935,0.775173,14.470840,24.753359,0.775173,14.470840,24.753359
310.000000,0.014648,-0.990234,-0.286621,31.000000,-67.016602,20.809174,10.189056,31.000000,89.249954,24.449966,-63.600006,31.000000,0.008095,-0.972906,-0.231058,18.493107,-12.358245,-8.740088,0.787904,0.233441,-0.569835,0.669351,15.105381,25.218773,0.669351,15.105381,25.218773
320.000000,0.021973,-0.971679,-0.282715,32.000000,-67.993164,21.297455,8.968353,32.000000,89.249954,25.649963,-61.800003,32.000000,0.008272,-0.971246,-0.237934,17.561995,-11.313048,-9.387767,0.789881,0.231640,-0.567830,0.577833,15.744909,25.676664,0.577833,15.744909,25.676664
330.000000,0.010742,-0.940429,-0.295410,33.000000,-68.237305,22.701263,8.296967,33.000000,89.099960,25.649963,-61.800003,33.000000,0.008673,-0.969576,-0.244639,17.344278,-9.438228,-9.419458,0.791858,0.230106,-0.565696,0.495216,16.381958,26.136049,0.495216,16.381958,26.136049
340.000000,0.040039,-0.964844,-0.310547,34.000000,-68.542480,24.654388,7.198334,34.000000,88.349960,22.799957,-60.300003,34.000000,0.009345,-0.967845,-0.251373,17.021151,-7.161702,-9.821542,0.793924,0.228695,-0.563368,0.425832,17.017223,26.602026,0.425832,17.017223,26.602026
350.000000,0.033203,-0.955566,-0.340820,35.000000,-67.016602,28.316498,6.710052,35.000000,88.349960,24.299957,-61.350006,35.000000,0.010511,-0.965972,-0.258434,18.412663,-3.416957,-9.568497,0.796065,0.226857,-0.561085,0.364026,17.633202,27.091002,0.364026,17.633202,27.091002
360.000000,0.040039,-0.945801,-0.339355,36.000000,-66.528320,30.757904,5.550385,36.000000,89.249954,24.299957,-61.350006,36.000000,0.012197,-0.963878,-0.266066,18.623775,-1.145348,-9.943020,0.798042,0.224891,-0.559064,0.316852,18.241144,27.590790,0.316852,18.241144,27.590790
370.000000,0.041504,-0.939453,-0.350586,37.000000,-65.307617,31.917572,5.245209,37.000000,88.499954,24.449966,-58.350006,37.000000,0.014302,-0.961553,-0.274247,19.447159,-0.288592,-9.430769,0.799927,0.223293,-0.557008,0.276155,18.834711,28.088678,0.276155,18.834711,28.088678
380.000000,0.035156,-0.939453,-0.346680,38.000000,-64.697266,32.588959,4.329681,38.000000,88.499954,23.099960,-60.150009,38.000000,0.016700,-0.959043,-0.282769,19.543221,0.029348,-9.510262,0.801936,0.221989,-0.554635,0.248153,19.420607,28.579588,0.248153,19.420607,28.579588
390.000000,0.031250,-0.926758,-0.361328,39.000000,-62.561035,33.504486,4.756927,39.000000,89.249954,23.099960,-60.150009,39.000000,0.019140,-0.956392,-0.291460,21.016834,0.553676,-8.262639,0.803898,0.220524,-0.552375,0.219501,19.984264,29.066061,0.219501,19.984264,29.066061
400.000000,0.021973,-0.931152,-0.352051,40.000000,-60.485840,34.358978,4.817963,40.000000,86.099960,22.649963,-58.650009,40.000000,0.021360,-0.953646,-0.300173,22.227354,0.972948,-7.440168,0.805600,0.218804,-0.550576,0.193557,20.526783,29.548021,0.193557,20.526783,29.548021
410.000000,0.024414,-0.918457,-0.365234,41.000000,-58.715820,34.603119,4.634857,41.000000,86.099960,23.249954,-58.500000,41.000000,0.023190,-0.950865,-0.308737,22.959045,0.769068,-6.893043,0.806911,0.217248,-0.549271,0.172206,21.051426,30.020260,0.172206,21.051426,30.020260
420.000000,0.018066,-0.909179,-0.361816,42.000000,-56.701660,35.335541,3.902435,42.000000,88.199966,23.249954,-58.500000,42.000000,0.024583,-0.948078,-0.317088,23.775299,1.046678,-6.891835,0.807924,0.216124,-0.548224,0.160225,21.555927,30.488270,0.160225,21.555927,30.488270
430.000000,0.030273,-0.895508,-0.400879,43.000000,-55.603027,36.800385,4.024506,43.000000,88.649963,21.599960,-56.550003,43.000000,0.025615,-0.945216,-0.325440,23.556570,1.997323,-6.047328,0.809168,0.215077,-0.546799,0.148626,22.049692,30.958811,0.148626,22.049692,30.958811
440.000000,0.032715,-0.876465,-0.411621,44.000000,-55.175781,38.387299,4.207611,44.000000,88.649963,20.999954,-57.450012,44.000000,0.026500,-0.942106,-0.334266,22.625212,2.976358,-5.193390,0.811023,0.213443,-0.544686,0.136644,22.540121,31.431776,0.136644,22.540121,31.431776
450.000000,0.027344,-0.865722,-0.428223,45.000000,-54.565430,39.546967,4.207611,45.000000,88.649963,20.999954,-57.450012,45.000000,0.027343,-0.938617,-0.343877,21.862694,3.452225,-4.567581,0.813250,0.211039,-0.542297,0.126049,23.026482,31.902113,0.126049,23.026482,31.902113
460.000000,0.051270,-0.851562,-0.448730,46.000000,-54.321289,39.485931,4.146576,46.000000,87.599960,22.049957,-57.450012,46.000000,0.028256,-0.934673,-0.354383,20.732098,2.706932,-4.036104,0.815378,0.208423,-0.540110,0.117523,23.513588,32.358013,0.117523,23.513588,32.358013
470.000000,0.041992,-0.853515,-0.444336,47.000000,-53.527832,40.035248,3.170013,47.000000,87.299957,20.999954,-55.650009,47.000000,0.029462,-0.930259,-0.365719,20.144733,2.598605,-4.410306,0.817234,0.206179,-0.538163,0.120386,23.997120,32.806210,0.120386,23.997120,32.806210
480.000000,0.035156,-0.868164,-0.437988,48.000000,-51.391602,39.974213,3.170013,48.000000,87.299957,20.249954,-55.350006,48.000000,0.030843,-0.925551,-0.377365,20.815609,1.905841,-3.801902,0.819042,0.204162,-0.536179,0.125084,24.464449,33.240913,0.125084,24.464449,33.240913
490.000000,0.038086,-0.862793,-0.437988,49.000000,-46.875000,40.096283,3.597260,49.000000,86.699966,20.249954,-55.350006,49.000000,0.032231,-0.920803,-0.388695,21.642698,1.439926,-2.822180,0.820972,0.202030,-0.534031,0.127424,24.912590,33.663887,0.127424,24.912590,33.663887
500.000000,0.053223,-0.867676,-0.444824,50.000000,-44.738770,39.730072,1.644135,50.000000,86.699966,19.649963,-54.450012,50.000000,0.033771,-0.916157,-0.399395,24.010784,0.541121,-4.192022,0.822967,0.199768,-0.531806,0.150984,25.323870,34.070389,0.150984,25.323870,34.070389
510.000000,0.046875,-0.875976,-0.446777,51.000000,-42.297363,40.035248,1.277924,51.000000,85.949966,19.649963,-54.450012,51.000000,0.035509,-0.911694,-0.409332,24.393692,0.358903,-3.911602,0.824876,0.197495,-0.529693,0.180050,25.715488,34.467442,0.180050,25.715488,34.467442
520.000000,0.072754,-0.873535,-0.458496,52.000000,-39.733887,40.340424,0.667572,52.000000,84.899963,19.649963,-52.950012,52.000000,0.037486,-0.907466,-0.418449,24.768633,0.190821,-3.873775,0.826570,0.195444,-0.527810,0.217216,26.085676,34.855633,0.217216,26.085676,34.855633
530.000000,0.074707,-0.885742,-0.459473,53.000000,-36.560059,41.255951,0.545502,53.000000,84.899963,19.649963,-53.700012,53.000000,0.039954,-0.903484,-0.426756,25.601927,0.620136,-3.357464,0.828011,0.193824,-0.526146,0.258168,26.427921,35.241642,0.258168,26.427921,35.241642
540.000000,0.073242,-0.870117,-0.455566,54.000000,-34.484863,41.744232,0.240326,54.000000,85.649963,19.649963,-53.700012,54.000000,0.042941,-0.899790,-0.434205,25.216738,0.601927,-3.047512,0.829161,0.192618,-0.524777,0.305295,26.752520,35.621925,0.305295,26.752520,35.621925
550.000000,0.082031,-0.875000,-0.466797,55.000000,-31.555176,42.415619,0.301361,55.000000,85.049957,18.599960,-53.400009,55.000000,0.046291,-0.896401,-0.440821,25.586369,0.758140,-2.402102,0.830080,0.191545,-0.523715,0.355360,27.050440,35.998859,0.355360,27.050440,35.998859
560.000000,0.074219,-0.841797,-0.459473,56.000000,-30.517578,43.148041,0.850677,56.000000,85.049957,17.999954,-51.450012,56.000000,0.049889,-0.893253,-0.446778,24.018021,0.956589,-1.335428,0.831050,0.190200,-0.522667,0.403850,27.339960,36.372959,0.403850,27.339960,36.372959
570.000000,0.101074,-0.830566,-0.460449,57.000000,-29.357910,44.429779,2.254486,57.000000,85.949966,17.999954,-51.450012,57.000000,0.053748,-0.890267,-0.452257,22.609030,1.659994,0.462958,0.832415,0.188432,-0.521132,0.442778,27.619480,36.748810,0.442778,27.619480,36.748810
580.000000,0.108398,-0.817383,-0.474609,58.000000,-28.015137,45.833588,2.559662,58.000000,84.599960,20.099960,-50.850006,58.000000,0.058142,-0.887324,-0.457468,21.409548,2.414087,1.055799,0.834124,0.186846,-0.518967,0.483816,27.887114,37.126892,0.483816,27.887114,37.126892
590.000000,0.107422,-0.797851,-0.489746,59.000000,-27.282715,47.115326,2.193451,59.000000,84.599960,17.099960,-51.300003,59.000000,0.063153,-0.884225,-0.462773,19.647324,2.978175,0.952033,0.835837,0.185797,-0.516581,0.534349,28.149261,37.506008,0.534349,28.149261,37.506008
600.000000,0.113281,-0.791992,-0.494629,60.000000,-26.489258,48.336029,2.803802,60.000000,85.049957,17.099960,-51.300003,60.000000,0.068598,-0.880804,-0.468485,18.019072,3.424666,1.787617,0.837456,0.184459,-0.514433,0.585250,28.406027,37.885658,0.585250,28.406027,37.885658
610.000000,0.122559,-0.786621,-0.500000,61.000000,-25.878906,49.251556,3.108978,61.000000,83.699966,17.249954,-49.950012,61.000000,0.074388,-0.877031,-0.474640,16.286020,3.528339,2.253488,0.839023,0.182522,-0.512567,0.640039,28.659956,38.262821,0.640039,28.659956,38.262821
620.000000,0.136719,-0.769531,-0.489258,62.000000,-24.047852,50.533295,2.132416,62.000000,84.299957,18.749954,-49.950012,62.000000,0.080604,-0.872965,-0.481077,15.806437,3.960162,1.445194,0.840509,0.180796,-0.510741,0.711848,28.899593,38.641308,0.711848,28.899593,38.641308
630.000000,0.136230,-0.755859,-0.475586,63.000000,-22.521973,50.716400,2.010345,63.000000,84.299957,17.999954,-49.350006,63.000000,0.087307,-0.868737,-0.487517,15.015985,3.289414,1.517523,0.841911,0.179845,-0.508765,0.792687,29.128321,39.010612,0.792687,29.128321,39.010612
640.000000,0.141113,-0.766113,-0.474609,64.000000,-20.019531,50.716400,1.583099,64.000000,83.699966,17.999954,-49.350006,64.000000,0.094382,-0.864532,-0.493637,15.170123,2.488119,1.286054,0.843250,0.179492,-0.506667,0.885926,29.336462,39.369366,0.885926,29.336462,39.369366
650.000000,0.155273,-0.774902,-0.458496,65.000000,-19.042969,49.739838,1.583099,65.000000,82.199966,17.699966,-49.350006,65.000000,0.101739,-0.860570,-0.499068,13.794263,0.811426,1.478085,0.844369,0.179445,-0.504817,0.987541,29.538567,39.708698,0.987541,29.538567,39.708698
660.000000,0.158203,-0.773926,-0.457031,66.000000,-17.456055,47.969818,1.461029,66.000000,82.199966,19.049957,-48.600006,66.000000,0.109398,-0.857053,-0.503480,13.067086,-1.484749,1.531438,0.845092,0.179869,-0.503455,1.098954,29.727510,40.022121,1.098954,29.727510,40.022121
670.000000,0.164062,-0.777344,-0.466308,67.000000,-15.075684,47.176361,0.240326,67.000000,82.799957,19.049957,-48.600006,67.000000,0.117274,-0.854015,-0.506858,13.111336,-2.645959,0.523577,0.845505,0.181092,-0.502322,1.231001,29.894484,40.320518,1.231001,29.894484,40.320518
680.000000,0.169434,-0.782226,-0.480957,68.000000,-13.366699,46.077728,0.606537,68.000000,81.299957,17.399963,-49.050003,68.000000,0.125225,-0.851327,-0.509472,12.460068,-3.990354,1.117383,0.845701,0.182695,-0.501410,1.367793,30.045551,40.601738,1.367793,30.045551,40.601738
690.000000,0.154297,-0.789062,-0.459961,69.000000,-10.864258,43.819427,0.362396,69.000000,81.299957,18.599960,-48.000000,69.000000,0.132970,-0.848966,-0.511445,12.576065,-6.314636,1.072651,0.845680,0.184082,-0.500938,1.514920,30.172432,40.855190,1.514920,30.172432,40.855190
700.000000,0.142578,-0.806152,-0.467285,70.000000,-8.789062,42.293549,-0.061035,70.000000,83.099960,18.599960,-48.000000,70.000000,0.139988,-0.847125,-0.512624,12.225999,-7.716844,0.856170,0.845657,0.185391,-0.500494,1.672887,30.278708,41.088627,1.672887,30.278708,41.088627
710.000000,0.141113,-0.795410,-0.471191,71.000000,-5.798340,39.913177,-0.244141,71.000000,81.149963,16.349960,-48.750000,71.000000,0.145860,-0.845872,-0.513055,12.735239,-9.788029,0.884741,0.845791,0.186291,-0.499933,1.837496,30.354727,41.293728,1.837496,30.354727,41.293728
720.000000,0.161133,-0.809570,-0.468750,72.000000,-3.417969,37.960052,0.240326,72.000000,81.149963,16.949966,-48.300003,72.000000,0.150684,-0.845096,-0.512940,12.569230,-11.237446,1.546102,0.845928,0.186124,-0.499763,2.000587,30.406250,41.475075,2.000587,30.406250,41.475075
730.000000,0.163086,-0.821289,-0.489258,73.000000,-0.610352,35.640717,0.972748,73.000000,81.749954,16.949966,-48.300003,73.000000,0.154833,-0.844673,-0.512401,12.778520,-12.871461,2.382568,0.846025,0.185117,-0.499974,2.158788,30.428947,41.629520,2.158788,30.428947,41.629520
740.000000,0.155273,-0.815918,-0.486328,74.000000,1.705170,33.809662,1.949310,74.000000,82.799957,17.849960,-46.950012,74.000000,0.158397,-0.844468,-0.511648,12.451016,-13.850845,3.372443,0.846328,0.183908,-0.499907,2.308981,30.427877,41.761974,2.308981,30.427877,41.761974
750.000000,0.169434,-0.804199,-0.494629,75.000000,3.170013,32.344818,3.047943,75.000000,82.799957,17.099960,-46.650009,75.000000,0.161393,-0.844329,-0.510942,11.290599,-14.344322,4.382176,0.847128,0.182847,-0.498940,2.449362,30.411854,41.875530,2.449362,30.411854,41.875530
760.000000,0.163086,-0.804199,-0.488281,76.000000,5.123138,30.818939,3.719330,76.000000,82.949966,17.099960,-46.650009,76.000000,0.163997,-0.844134,-0.510434,10.653243,-14.800021,4.880819,0.848442,0.181844,-0.497070,2.583813,30.376623,41.968983,2.583813,30.376623,41.968983
770.000000,0.169434,-0.802246,-0.485840,77.000000,6.160736,30.391693,3.780365,77.000000,80.399963,17.249954,-45.450012,77.000000,0.166301,-0.843887,-0.510096,9.154079,-14.110158,4.734794,0.849996,0.180938,-0.494741,2.718053,30.331741,42.053051,2.718053,30.331741,42.053051
780.000000,0.173828,-0.784180,-0.514160,78.000000,7.137299,29.903412,3.719330,78.000000,80.399963,17.249954,-46.050003,78.000000,0.168403,-0.843482,-0.510076,7.689408,-13.484015,4.466527,0.851440,0.180418,-0.492443,2.853058,30.278410,42.127632,2.853058,30.278410,42.127632
790.000000,0.193359,-0.784180,-0.517578,79.000000,7.625580,29.415131,3.597260,79.000000,79.949966,16.499954,-47.100006,79.000000,0.170512,-0.842640,-0.510768,6.086681,-12.860155,4.145809,0.852482,0.180128,-0.490742,2.989536,30.220163,42.193790,2.989536,30.220163,42.193790
800.000000,0.190918,-0.790039,-0.521973,80.000000,8.358002,29.415131,2.376556,80.000000,80.999954,17.099960,-46.950012,80.000000,0.172818,-0.841276,-0.512239,4.363694,-11.773681,2.785804,0.853025,0.179760,-0.489933,3.138623,30.160582,42.257477,3.138623,30.160582,42.257477
810.000000,0.190430,-0.787109,-0.522461,81.000000,8.663177,30.635834,2.681732,81.000000,80.999954,16.349960,-46.950012,81.000000,0.175347,-0.839505,-0.514280,2.595564,-9.567438,2.990475,0.853217,0.179258,-0.489784,3.285524,30.102303,42.331402,3.285524,30.102303,42.331402
820.000000,0.178711,-0.804687,-0.531738,82.000000,9.700775,30.635834,2.437592,82.000000,79.499954,16.349960,-46.950012,82.000000,0.177864,-0.837477,-0.516718,1.668553,-8.680282,2.640998,0.853156,0.178557,-0.490145,3.435732,30.038675,42.403881,3.435732,30.038675,42.403881
830.000000,0.194336,-0.799316,-0.522949,83.000000,10.799408,30.452728,3.047943,83.000000,80.099960,17.099960,-47.400009,83.000000,0.180180,-0.835353,-0.519346,0.872438,-8.010902,3.128614,0.852759,0.177852,-0.491092,3.580585,29.969460,42.473854,3.580585,29.969460,42.473854
840.000000,0.194824,-0.806152,-0.520996,84.000000,11.165619,30.269623,2.986908,84.000000,80.099960,16.949966,-45.450012,84.000000,0.182417,-0.833271,-0.521904,-0.559877,-7.368165,2.920738,0.852207,0.177506,-0.492174,3.726665,29.901852,42.541759,3.726665,29.901852,42.541759
850.000000,0.198242,-0.812988,-0.512207,85.000000,11.714935,29.293060,3.231049,85.000000,79.499954,16.949966,-45.450012,85.000000,0.184675,-0.831376,-0.524127,-1.693148,-7.511209,3.011414,0.851892,0.177576,-0.492694,3.870944,29.833582,42.599476,3.870944,29.833582,42.599476
860.000000,0.184570,-0.819824,-0.512695,86.000000,11.470795,27.584076,3.414154,86.000000,81.449966,16.649963,-46.350006,86.000000,0.186807,-0.829830,-0.525819,-3.482641,-8.314301,3.024618,0.851907,0.177811,-0.492582,4.013799,29.771702,42.639385,4.013799,29.771702,42.639385
870.000000,0.180664,-0.812012,-0.513672,87.000000,11.959076,25.508881,3.963470,87.000000,81.449966,18.299957,-45.000000,87.000000,0.188545,-0.828693,-0.526990,-4.406230,-9.367990,3.375567,0.852253,0.178237,-0.491830,4.151036,29.708138,42.657631,4.151036,29.708138,42.657631
880.000000,0.181641,-0.797363,-0.502930,88.000000,12.508392,23.616791,4.634857,88.000000,79.349960,18.299957,-45.000000,88.000000,0.189804,-0.827902,-0.527781,-5.176259,-10.121542,3.800686,0.852836,0.179406,-0.490393,4.280843,29.641737,42.656132,4.280843,29.641737,42.656132
890.000000,0.183105,-0.806640,-0.508301,89.000000,13.423920,22.579193,4.940033,89.000000,77.699966,17.249954,-46.800003,89.000000,0.190706,-0.827382,-0.528271,-5.510961,-9.955419,3.825002,0.853121,0.181267,-0.489211,4.406406,29.568501,42.644421,4.406406,29.568501,42.644421
900.000000,0.168457,-0.825195,-0.494141,90.000000,14.095306,21.663666,5.245209,90.000000,77.699966,17.099960,-45.600006,90.000000,0.191206,-0.827207,-0.528364,-6.029911,-9.649035,3.832796,0.852736,0.183095,-0.489201,4.527178,29.490351,42.625267,4.527178,29.490351,42.625267
910.000000,0.177734,-0.826172,-0.500000,91.000000,15.254974,21.053314,4.756927,91.000000,79.949966,17.099960,-45.600006,91.000000,0.191196,-0.827505,-0.527901,-6.014890,-9.040325,3.066469,0.852083,0.184473,-0.489821,4.650215,29.401754,42.602276,4.650215,29.401754,42.602276
920.000000,0.185547,-0.833008,-0.495117,92.000000,18.245697,19.588470,4.268646,92.000000,79.349960,18.149963,-45.900009,92.000000,0.190858,-0.828234,-0.526880,-4.226935,-9.266568,2.353710,0.851587,0.185523,-0.490286,4.774912,29.284161,42.566811,4.774912,29.284161,42.566811
930.000000,0.173828,-0.844238,-0.484863,93.000000,20.198822,17.940521,3.231049,93.000000,77.399963,18.299957,-46.800003,93.000000,0.190361,-0.829362,-0.525281,-3.567533,-9.613708,1.167214,0.850969,0.186747,-0.490895,4.906290,29.147495,42.517643,4.906290,29.147495,42.517643
940.000000,0.189941,-0.854492,-0.489746,94.000000,21.541595,16.109467,3.231049,94.000000,77.399963,18.149963,-46.650009,94.000000,0.189728,-0.830926,-0.523034,-3.534544,-10.070151,1.069696,0.849833,0.188350,-0.492248,5.033740,28.997213,42.454399,5.033740,28.997213,42.454399
950.000000,0.165039,-0.850097,-0.474121,95.000000,23.372650,15.926361,2.986908,95.000000,77.549957,18.149963,-46.650009,95.000000,0.188955,-0.832894,-0.520177,-3.023940,-8.873400,0.742895,0.848292,0.190088,-0.494234,5.159435,28.827948,42.394382,5.159435,28.827948,42.394382
960.000000,0.193359,-0.845215,-0.477539,96.000000,24.471283,15.743256,3.780365,96.000000,79.499954,17.999954,-47.100006,96.000000,0.188080,-0.835176,-0.516825,-3.245917,-7.744870,1.433580,0.846727,0.191626,-0.496319,5.273023,28.646572,42.337543,5.273023,28.646572,42.337543
970.000000,0.175293,-0.847656,-0.472168,97.000000,25.081635,15.316010,4.329681,97.000000,79.499954,18.599960,-45.600006,97.000000,0.187283,-0.837620,-0.513144,-3.903817,-6.916558,1.826592,0.845566,0.192844,-0.497825,5.377201,28.457691,42.280548,5.377201,28.457691,42.280548
980.000000,0.174316,-0.851562,-0.462402,98.000000,26.241302,15.682220,4.878998,98.000000,78.599960,18.599960,-45.600006,98.000000,0.186512,-0.840184,-0.509220,-3.965583,-5.373560,2.179287,0.845021,0.193991,-0.498305,5.472164,28.255758,42.229931,5.472164,28.255758,42.229931
990.000000,0.182129,-0.862793,-0.450195,99.000000,26.485443,15.377045,5.184174,99.000000,78.449966,17.999954,-47.100006,99.000000,0.185689,-0.842942,-0.504944,-4.882854,-4.583659,2.260227,0.844796,0.195068,-0.498265,5.560377,28.049540,42.178329,5.560377,28.049540,42.178329
1000.000000,0.185059,-0.877929,-0.437988,100.000000,28.316498,15.132904,5.123138,100.000000,78.449966,18.149963,-45.300003,100.000000,0.184967,-0.845983,-0.500100,-4.185732,-3.785216,1.975449,0.844649,0.195813,-0.498223,5.645627,27.822834,42.126167,5.645627,27.822834,42.126167
1010.000000,0.183105,-0.885254,-0.428711,101.000000,29.476166,14.461517,5.184174,101.000000,78.299957,18.149963,-45.300003,101.000000,0.184407,-0.849377,-0.494522,-4.174275,-3.449035,1.824184,0.844746,0.196278,-0.497875,5.726895,27.581686,42.068737,5.726895,27.581686,42.068737
1020.000000,0.189453,-0.901855,-0.432617,102.000000,30.574799,14.217377,5.123138,102.000000,77.699966,18.749954,-46.050003,102.000000,0.183985,-0.853099,-0.488234,-4.206402,-2.719726,1.562121,0.845005,0.196738,-0.497253,5.805558,27.326075,42.010017,5.805558,27.326075,42.010017
1030.000000,0.197266,-0.901855,-0.408203,103.000000,31.063080,12.996674,5.001068,103.000000,77.699966,19.649963,-46.650009,103.000000,0.183788,-0.857076,-0.481293,-4.803730,-2.976272,1.258055,0.844997,0.197598,-0.496925,5.882497,27.061464,41.941067,5.882497,27.061464,41.941067
1040.000000,0.187012,-0.904297,-0.413086,104.000000,31.551361,12.630463,5.733490,104.000000,78.149963,19.649963,-46.650009,104.000000,0.183858,-0.861249,-0.473758,-5.332118,-2.382401,1.792446,0.844544,0.199110,-0.497092,5.949670,26.787319,41.871471,5.949670,26.787319,41.871471
1050.000000,0.184570,-0.918945,-0.414062,105.000000,32.161713,12.203217,5.855560,105.000000,78.449966,18.899963,-48.450012,105.000000,0.183993,-0.865514,-0.465867,-5.678666,-1.888403,1.690801,0.843690,0.200855,-0.497841,6.013320,26.502218,41.801487,6.013320,26.502218,41.801487
1060.000000,0.175781,-0.945312,-0.408203,106.000000,31.612396,11.714935,4.695892,106.000000,78.449966,19.349960,-47.400009,106.000000,0.183915,-0.869828,-0.457793,-7.083563,-1.487653,0.365370,0.842518,0.202292,-0.499242,6.085807,26.217531,41.731102,6.085807,26.217531,41.731102
1070.000000,0.152832,-0.944336,-0.389160,107.000000,31.673431,11.470795,4.207611,107.000000,78.299957,19.349960,-47.400009,107.000000,0.183283,-0.874286,-0.449479,-7.758416,-0.881825,-0.206537,0.841268,0.203446,-0.500878,6.159655,25.926943,41.662830,6.159655,25.926943,41.662830
1080.000000,0.161621,-0.947265,-0.388672,108.000000,32.711029,11.104584,3.292084,108.000000,77.849960,18.749954,-46.800003,108.000000,0.181898,-0.878921,-0.440920,-7.412448,-0.440940,-1.137717,0.840177,0.204358,-0.502334,6.238052,25.620659,41.595078,6.238052,25.620659,41.595078
1090.000000,0.157227,-0.951172,-0.380859,109.000000,32.039642,11.043549,2.925873,109.000000,78.149963,20.249954,-48.300003,109.000000,0.179857,-0.883631,-0.432259,-8.352306,0.256039,-1.459980,0.839191,0.205125,-0.503669,6.314717,25.312012,41.530586,6.314717,25.312012,41.530586
1100.000000,0.170898,-0.931152,-0.379394,110.000000,31.551361,10.738373,2.132416,110.000000,77.249954,19.649963,-46.650009,110.000000,0.177446,-0.888248,-0.423708,-9.706138,0.659260,-2.158006,0.838167,0.206119,-0.504967,6.393471,25.006605,41.466988,6.393471,25.006605,41.466988
1110.000000,0.200195,-0.922851,-0.365234,111.000000,30.452728,11.165619,1.094818,111.000000,78.299957,19.799957,-48.600006,111.000000,0.175347,-0.892559,-0.415442,-11.141715,1.726299,-3.022059,0.837140,0.207285,-0.506191,6.477162,24.707230,41.411449,6.477162,24.707230,41.411449
1120.000000,0.200195,-0.920410,-0.389160,112.000000,28.682709,12.020111,1.094818,112.000000,78.299957,20.249954,-48.300003,112.000000,0.174197,-0.896356,-0.407679,-13.055342,3.104770,-2.808720,0.836087,0.208410,-0.507469,6.556844,24.421133,41.368011,6.556844,24.421133,41.368011
1130.000000,0.221680,-0.936523,-0.365234,113.000000,27.034760,13.057709,0.789642,113.000000,78.299957,20.249954,-48.300003,113.000000,0.174172,-0.899563,-0.400564,-14.640165,4.529453,-2.894820,0.835007,0.209561,-0.508771,6.637127,24.147825,41.338261,6.637127,24.147825,41.338261
1140.000000,0.219727,-0.950195,-0.358398,114.000000,26.180267,14.827728,0.000000,114.000000,77.249954,20.999954,-49.350006,114.000000,0.175274,-0.902320,-0.393824,-15.275942,6.516482,-3.426074,0.833815,0.210903,-0.510169,6.724239,23.879887,41.329330,6.724239,23.879887,41.329330
1150.000000,0.209473,-0.958496,-0.321777,115.000000,25.081635,16.353607,1.522064,115.000000,77.249954,20.549957,-49.650009,115.000000,0.177228,-0.904905,-0.386958,-16.033470,8.076410,-1.687965,0.832250,0.212496,-0.512061,6.796463,23.619543,41.339149,6.796463,23.619543,41.339149
1160.000000,0.218750,-0.963379,-0.305664,116.000000,23.555756,18.611908,1.644135,116.000000,77.549957,20.549957,-49.650009,116.000000,0.179676,-0.907580,-0.379494,-17.074682,10.173780,-1.430413,0.830372,0.214079,-0.514443,6.868385,23.370140,41.375114,6.868385,23.370140,41.375114
1170.000000,0.210449,-0.962402,-0.288574,117.000000,22.823334,19.710541,2.193451,117.000000,77.549957,22.049957,-48.300003,117.000000,0.182439,-0.910457,-0.371193,-17.203869,10.945107,-0.780675,0.828539,0.215742,-0.516700,6.936141,23.122683,41.425228,6.936141,23.122683,41.425228
1180.000000,0.211426,-0.978027,-0.259277,118.000000,21.541595,20.442963,3.047943,118.000000,77.549957,22.049957,-48.900009,118.000000,0.185321,-0.913599,-0.361930,-17.782507,11.259196,0.108683,0.826976,0.217972,-0.518266,6.996883,22.881350,41.485088,6.996883,22.881350,41.485088
1190.000000,0.219727,-0.978515,-0.261719,119.000000,20.870209,19.161224,3.597260,119.000000,76.949966,22.049957,-48.900009,119.000000,0.188207,-0.917021,-0.351640,-17.660925,9.577404,0.630100,0.825625,0.220716,-0.519257,7.053656,22.638790,41.534351,7.053656,22.638790,41.534351
1200.000000,0.211914,-0.989746,-0.225586,120.000000,19.344330,16.231537,3.475189,120.000000,78.149963,21.899963,-49.050003,120.000000,0.191060,-0.920667,-0.340394,-18.300301,6.426079,0.462592,0.824453,0.223519,-0.519919,7.113001,22.402252,41.556690,7.113001,22.402252,41.556690
1210.000000,0.219727,-0.987304,-0.214844,121.000000,19.405365,12.081146,2.620697,121.000000,78.149963,20.099960,-48.000000,121.000000,0.193802,-0.924529,-0.328158,-17.298210,2.350754,-0.393014,0.823763,0.225657,-0.520089,7.181839,22.154877,41.539669,7.181839,22.154877,41.539669
1220.000000,0.232910,-1.003418,-0.209473,122.000000,18.001556,6.771088,2.193451,122.000000,77.249954,20.099960,-48.000000,122.000000,0.196513,-0.928510,-0.315042,-17.717142,-2.496225,-0.765709,0.823788,0.226476,-0.519694,7.255706,21.910204,41.471184,7.255706,21.910204,41.471184
1230.000000,0.225098,-0.991211,-0.195801,123.000000,16.048431,1.888275,1.094818,123.000000,76.649963,20.999954,-49.650009,123.000000,0.199286,-0.932454,-0.301356,-18.558950,-6.512981,-1.746033,0.824087,0.226283,-0.519305,7.341140,21.672926,41.355846,7.341140,21.672926,41.355846
1240.000000,0.239258,-0.989746,-0.179687,124.000000,14.278412,-3.112793,0.667572,124.000000,76.949966,21.599960,-49.500000,124.000000,0.202126,-0.936262,-0.287330,-19.083906,-10.276722,-1.994197,0.824031,0.225934,-0.519545,7.431424,21.440754,41.194138,7.431424,21.440754,41.194138
1250.000000,0.233398,-0.988281,-0.155273,125.000000,13.362885,-7.995605,-0.122070,125.000000,76.949966,23.099960,-49.050003,125.000000,0.205078,-0.939899,-0.273007,-18.674755,-13.568503,-2.560374,0.823526,0.226220,-0.520220,7.530162,21.204916,40.989094,7.530162,21.204916,40.989094
1260.000000,0.217773,-0.993164,-0.146973,126.000000,12.996674,-11.840820,-1.342773,126.000000,77.399963,23.099960,-49.050003,126.000000,0.207946,-0.943399,-0.258374,-17.704380,-15.536625,-3.481065,0.822777,0.227616,-0.520797,7.641328,20.959778,40.752316,7.641328,20.959778,40.752316
1270.000000,0.214844,-1.004394,-0.134277,127.000000,12.508392,-16.052246,-2.868652,127.000000,76.799957,22.649963,-50.250000,127.000000,0.210353,-0.946805,-0.243540,-16.866375,-17.628996,-4.602234,0.821837,0.229793,-0.521324,7.767135,20.706503,40.481285,7.767135,20.706503,40.481285
1280.000000,0.202148,-1.006347,-0.127441,128.000000,13.301849,-20.446777,-3.601074,128.000000,76.799957,23.249954,-49.950012,128.000000,0.212046,-0.950129,-0.228672,-14.809849,-19.651997,-4.851711,0.820616,0.232208,-0.522177,7.898700,20.432661,40.175468,7.898700,20.432661,40.175468
1290.000000,0.189941,-1.037597,-0.114258,129.000000,14.217377,-24.536133,-5.371094,129.000000,76.799957,23.249954,-49.950012,129.000000,0.212780,-0.953402,-0.213890,-12.755448,-21.136820,-6.054149,0.819183,0.234738,-0.523295,8.044984,20.137569,39.839001,8.044984,20.137569,39.839001
1300.000000,0.191894,-1.056640,-0.124023,130.000000,14.522552,-28.503418,-5.737305,130.000000,78.599960,23.549957,-51.750000,130.000000,0.212374,-0.956636,-0.199358,-11.411349,-22.298761,-5.788671,0.817679,0.237203,-0.524533,8.190644,19.827930,39.473812,8.190644,19.827930,39.473812
1310.000000,0.207519,-1.065429,-0.111816,131.000000,16.048431,-31.433105,-6.652832,131.000000,78.599960,21.299957,-51.450012,131.000000,0.211039,-0.959745,-0.185345,-8.970755,-22.285141,-6.049335,0.816276,0.238854,-0.525969,8.340058,19.492704,39.090427,8.340058,19.492704,39.090427
1320.000000,0.199707,-1.075683,-0.123535,132.000000,16.231537,-33.752441,-7.263184,132.000000,79.049957,21.299957,-51.450012,132.000000,0.209150,-0.962617,-0.172120,-7.988193,-21.604639,-5.973063,0.815277,0.238885,-0.527501,8.489602,19.146534,38.694344,8.489602,19.146534,38.694344
1330.000000,0.195312,-1.089355,-0.133789,133.000000,16.841888,-34.973145,-7.690430,133.000000,78.749954,23.999954,-53.250000,133.000000,0.206804,-0.965200,-0.160065,-6.650307,-19.849468,-5.705558,0.814508,0.237910,-0.529127,8.637043,18.786873,38.296108,8.637043,18.786873,38.296108
1340.000000,0.177734,-1.100097,-0.141602,134.000000,15.438080,-36.621094,-8.666992,134.000000,78.749954,22.649963,-51.900009,134.000000,0.203871,-0.967505,-0.149570,-7.327675,-18.577202,-5.964682,0.813567,0.237127,-0.530923,8.787222,18.435602,37.891933,8.787222,18.435602,37.891933
1350.000000,0.163574,-1.063476,-0.128906,135.000000,15.804291,-37.109375,-9.216309,135.000000,77.399963,22.649963,-51.900009,135.000000,0.200221,-0.969590,-0.140735,-6.226661,-16.233639,-5.770555,0.812558,0.236621,-0.532691,8.935149,18.077183,37.493443,8.935149,18.077183,37.493443
1360.000000,0.168457,-1.063965,-0.143555,136.000000,16.597748,-37.780762,-9.765625,136.000000,77.549957,22.649963,-51.600006,136.000000,0.195958,-0.971482,-0.133504,-4.787051,-14.203139,-5.571128,0.811610,0.236211,-0.534316,9.080232,17.709476,37.098610,9.080232,17.709476,37.098610
1370.000000,0.154297,-1.068359,-0.123047,137.000000,17.024994,-36.987305,-10.681152,137.000000,77.549957,22.499954,-53.250000,137.000000,0.191286,-0.973189,-0.127723,-3.802050,-10.890425,-5.717902,0.810611,0.235879,-0.535976,9.225704,17.337978,36.721821,9.225704,17.337978,36.721821
1380.000000,0.153809,-1.077636,-0.123535,138.000000,17.818451,-35.644531,-10.498047,138.000000,78.599960,22.499954,-53.250000,138.000000,0.186267,-0.974767,-0.123021,-2.536134,-7.292773,-4.779701,0.809484,0.235437,-0.537870,9.360434,16.960459,36.368328,9.360434,16.960459,36.368328
1390.000000,0.128906,-1.087402,-0.130371,139.000000,17.574310,-35.217285,-10.803223,139.000000,77.699966,24.299957,-53.250000,139.000000,0.180883,-0.976258,-0.119170,-1.660183,-4.849193,-4.370269,0.808344,0.235134,-0.539715,9.489034,16.581036,36.028709,9.489034,16.581036,36.028709
1400.000000,0.149902,-1.060058,-0.137207,140.000000,18.306732,-33.569336,-11.962891,140.000000,77.699966,22.649963,-54.750000,140.000000,0.175247,-0.977639,-0.116237,-1.319497,-1.427397,-4.796494,0.807129,0.235256,-0.541477,9.619741,16.205616,35.714802,9.619741,16.205616,35.714802
1410.000000,0.145996,-1.058105,-0.139160,141.000000,17.635345,-31.860352,-11.901855,141.000000,77.399963,22.649963,-54.750000,141.000000,0.169679,-0.978850,-0.114289,-1.645002,1.767240,-4.000700,0.805557,0.235374,-0.543761,9.740669,15.841869,35.427364,9.740669,15.841869,35.427364
1420.000000,0.149902,-1.057129,-0.146973,142.000000,17.696381,-29.907227,-13.000488,142.000000,78.749954,23.849960,-54.000000,142.000000,0.164428,-0.979860,-0.113305,-1.236021,4.917109,-4.366722,0.803777,0.235398,-0.546379,9.863779,15.483528,35.168671,9.863779,15.483528,35.168671
1430.000000,0.145020,-1.051758,-0.138672,143.000000,19.039154,-25.939941,-13.427734,143.000000,78.749954,24.149963,-54.750000,143.000000,0.159578,-0.980679,-0.113157,0.368894,9.707213,-4.042912,0.802143,0.235813,-0.548597,9.982941,15.118916,34.957577,9.982941,15.118916,34.957577
1440.000000,0.135742,-1.092285,-0.135742,144.000000,19.100189,-22.888184,-14.099121,144.000000,78.749954,24.149963,-54.750000,144.000000,0.155043,-0.981360,-0.113549,0.609921,13.177620,-3.964887,0.800697,0.236719,-0.550317,10.101010,14.761357,34.783772,10.101010,14.761357,34.783772
1450.000000,0.133301,-1.088867,-0.144043,145.000000,19.771576,-20.019531,-14.709473,145.000000,78.449966,24.899963,-55.500000,145.000000,0.150631,-0.981967,-0.114244,1.411978,16.128016,-3.820131,0.799290,0.238038,-0.551791,10.217563,14.405090,34.644611,10.217563,14.405090,34.644611
1460.000000,0.130371,-1.083984,-0.120117,146.000000,20.870209,-18.371582,-16.174316,146.000000,78.449966,24.449966,-55.500000,146.000000,0.146303,-0.982526,-0.115055,2.549185,17.598957,-4.490607,0.797802,0.239696,-0.553225,10.341107,14.046040,34.527599,10.341107,14.046040,34.527599
1470.000000,0.121582,-1.075195,-0.143555,147.000000,21.602631,-16.357422,-17.211914,147.000000,78.449966,24.449966,-55.500000,147.000000,0.142083,-0.983054,-0.115833,3.229772,19.228626,-4.678427,0.796296,0.241398,-0.554653,10.467444,13.687817,34.435905,10.467444,13.687817,34.435905
1480.000000,0.121582,-1.079590,-0.111816,148.000000,23.494720,-14.282227,-17.761230,148.000000,79.349960,24.449966,-56.250000,148.000000,0.137953,-0.983561,-0.116517,4.949561,20.705456,-4.365538,0.794919,0.242845,-0.555995,10.591839,13.318933,34.369354,10.591839,13.318933,34.369354
1490.000000,0.120605,-1.097168,-0.134277,149.000000,23.921967,-12.023926,-18.127441,149.000000,79.349960,24.749954,-55.650009,149.000000,0.133937,-0.984062,-0.116970,5.103236,22.153627,-3.887606,0.793777,0.243975,-0.557131,10.712665,12.953691,34.328754,10.712665,12.953691,34.328754
1500.000000,0.114258,-1.092285,-0.131836,150.000000,24.959564,-9.704590,-17.700195,150.000000,78.299957,24.749954,-55.650009,150.000000,0.130043,-0.984548,-0.117281,5.808389,23.453339,-2.676645,0.792884,0.244943,-0.557976,10.822359,12.585876,34.313652,10.822359,12.585876,34.313652
1510.000000,0.121094,-1.083984,-0.146484,151.000000,26.424408,-7.873535,-17.761230,151.000000,77.549957,26.249954,-56.400009,151.000000,0.126314,-0.984983,-0.117699,6.840318,24.086857,-2.025592,0.791925,0.246179,-0.558794,10.926126,12.211483,34.318829,10.926126,12.211483,34.318829
1520.000000,0.128418,-1.072754,-0.145996,152.000000,27.278900,-6.225586,-17.272949,152.000000,77.549957,25.499954,-57.150009,152.000000,0.122960,-0.985324,-0.118399,7.174832,24.400343,-0.896795,0.790515,0.247951,-0.560005,11.019144,11.836959,34.342884,11.019144,11.836959,34.342884
1530.000000,0.125488,-1.051758,-0.130859,153.000000,29.476166,-3.356934,-17.272949,153.000000,78.749954,25.499954,-57.150009,153.000000,0.120171,-0.985556,-0.119321,8.738214,25.762629,-0.327646,0.788760,0.249841,-0.561638,11.107074,11.449417,34.398026,11.107074,11.449417,34.398026
1540.000000,0.132812,-1.041992,-0.144043,154.000000,30.513763,-0.305176,-16.601562,154.000000,79.349960,25.949966,-57.300003,154.000000,0.118014,-0.985696,-0.120316,9.026378,27.086884,0.836559,0.787082,0.251451,-0.563271,11.184175,11.060578,34.485214,11.184175,11.060578,34.485214
1550.000000,0.142578,-1.035644,-0.123047,155.000000,31.917572,2.071381,-16.357422,155.000000,79.049957,27.299957,-57.150009,155.000000,0.116596,-0.985743,-0.121307,9.606229,27.550329,1.489939,0.785648,0.253086,-0.564539,11.255709,10.666886,34.596649,11.255709,10.666886,34.596649
1560.000000,0.158691,-1.034668,-0.116699,156.000000,32.100677,5.611420,-15.563965,156.000000,79.049957,27.299957,-58.500000,156.000000,0.116114,-0.985711,-0.122034,8.932823,28.983187,2.607580,0.784256,0.255158,-0.565541,11.317488,10.280111,34.743061,11.317488,10.280111,34.743061
1570.000000,0.172363,-1.043945,-0.116699,157.000000,31.185150,8.480072,-13.916016,157.000000,78.299957,27.299957,-58.500000,157.000000,0.116763,-0.985602,-0.122293,7.232028,29.542486,4.437700,0.782641,0.257556,-0.566691,11.362640,9.910356,34.917484,11.362640,9.910356,34.917484
1580.000000,0.190430,-1.031738,-0.104492,158.000000,30.025482,11.531830,-12.939453,158.000000,77.399963,25.499954,-58.500000,158.000000,0.118701,-0.985402,-0.122039,5.414984,30.117746,5.453237,0.780780,0.259686,-0.568284,11.399569,9.559098,35.121597,11.399569,9.559098,35.121597
1590.000000,0.208008,-1.044433,-0.106934,159.000000,28.804779,15.560150,-12.023926,159.000000,77.399963,27.449966,-59.100006,159.000000,0.122060,-0.985090,-0.121236,3.673587,31.464411,6.303438,0.778724,0.261251,-0.570383,11.430679,9.225953,35.364773,11.430679,9.225953,35.364773
1600.000000,0.204590,-1.027832,-0.100098,160.000000,27.828217,19.161224,-11.413574,160.000000,77.699966,27.449966,-59.100006,160.000000,0.126777,-0.984655,-0.119926,2.299900,32.168999,6.765619,0.776466,0.262707,-0.572787,11.460651,8.907599,35.642426,11.460651,8.907599,35.642426
1610.000000,0.198730,-1.038086,-0.122559,161.000000,26.912689,21.053314,-11.596680,161.000000,78.299957,28.199966,-57.900009,161.000000,0.132441,-0.984100,-0.118349,1.092702,31.057405,6.403962,0.774295,0.264445,-0.574923,11.498383,8.602854,35.936932,11.498383,8.602854,35.936932
1620.000000,0.189453,-1.043457,-0.122559,162.000000,24.959564,21.175385,-11.352539,162.000000,78.299957,28.499954,-58.800003,162.000000,0.138473,-0.983445,-0.116881,-1.008492,28.229864,6.457534,0.772531,0.266538,-0.576328,11.539966,8.321748,36.229778,11.539966,8.321748,36.229778
1630.000000,0.185547,-1.041504,-0.117676,163.000000,23.799896,20.320892,-11.901855,163.000000,78.299957,28.499954,-58.800003,163.000000,0.144378,-0.982740,-0.115655,-2.168246,24.601934,5.723175,0.771109,0.268895,-0.577136,11.592959,8.056315,36.510769,11.592959,8.056315,36.510769
1640.000000,0.172363,-1.040527,-0.112305,164.000000,21.785736,17.208099,-11.779785,164.000000,77.849960,26.999954,-59.250000,164.000000,0.149784,-0.982061,-0.114549,-4.038558,19.029339,5.671837,0.769915,0.270984,-0.577752,11.649981,7.814748,36.757622,11.649981,7.814748,36.757622
1650.000000,0.167480,-1.023926,-0.116699,165.000000,20.565033,14.583588,-11.352539,165.000000,77.849960,29.549957,-59.250000,165.000000,0.154408,-0.981465,-0.113508,-4.975613,14.325705,5.895346,0.768831,0.272662,-0.578407,11.707050,7.588857,36.975658,11.707050,7.588857,36.975658
1660.000000,0.162598,-1.025879,-0.117187,166.000000,19.344330,11.714935,-10.437012,166.000000,76.499954,29.549957,-59.250000,166.000000,0.158125,-0.980977,-0.112610,-5.814193,9.734326,6.544636,0.767568,0.274659,-0.579139,11.758329,7.378476,37.163349,11.758329,7.378476,37.163349
1670.000000,0.160156,-1.019531,-0.118164,167.000000,18.611908,9.029388,-10.803223,167.000000,76.649963,28.799957,-58.800003,167.000000,0.160931,-0.980600,-0.111913,-6.092441,5.671692,5.887952,0.766047,0.277149,-0.579966,11.815434,7.178726,37.323563,11.815434,7.178726,37.323563
1680.000000,0.169434,-1.023437,-0.106934,168.000000,18.245697,6.649017,-10.864258,168.000000,76.649963,30.899963,-59.100006,168.000000,0.162955,-0.980332,-0.111333,-5.973712,2.224961,5.556767,0.764417,0.279928,-0.580781,11.874349,6.985926,37.460018,11.874349,6.985926,37.460018
1690.000000,0.196289,-1.024902,-0.113770,169.000000,16.353607,5.062103,-12.634277,169.000000,77.399963,30.899963,-59.100006,169.000000,0.164522,-0.980136,-0.110749,-6.251185,-0.178146,3.598024,0.762684,0.283294,-0.581427,11.951250,6.804110,37.581169,11.951250,6.804110,37.581169
1700.000000,0.195312,-1.024902,-0.099609,170.000000,14.339447,2.010345,-14.221191,170.000000,76.499954,29.399963,-59.100006,170.000000,0.166028,-0.979957,-0.110082,-8.699988,-3.777444,1.967375,0.760940,0.286877,-0.581955,12.043912,6.655689,37.673077,12.043912,6.655689,37.673077
1710.000000,0.191406,-1.033691,-0.080078,171.000000,12.874603,1.277924,-14.343262,171.000000,76.499954,29.249954,-60.300003,171.000000,0.167686,-0.979790,-0.109058,-9.331375,-4.837895,1.869123,0.759344,0.289708,-0.582638,12.137833,6.523430,37.758907,12.137833,6.523430,37.758907
1720.000000,0.207519,-1.037597,-0.079590,172.000000,11.714935,1.522064,-14.770508,172.000000,76.199966,29.249954,-60.300003,172.000000,0.169544,-0.979656,-0.107376,-9.581903,-4.855778,1.480247,0.757815,0.291434,-0.583765,12.236200,6.403255,37.848454,12.236200,6.403255,37.848454
1730.000000,0.216797,-1.068359,-0.060059,173.000000,11.531830,3.170013,-14.526367,173.000000,75.899963,29.549957,-59.850006,173.000000,0.171716,-0.979545,-0.104906,-8.840799,-3.510987,1.761052,0.756306,0.292355,-0.585260,12.332695,6.284436,37.955494,12.332695,6.284436,37.955494
1740.000000,0.219727,-1.077636,-0.058594,174.000000,10.799408,4.451752,-14.160156,174.000000,75.899963,28.649963,-60.150009,174.000000,0.174236,-0.979454,-0.101548,-8.654744,-2.617565,2.128093,0.754918,0.292691,-0.586882,12.426548,6.171297,38.075947,12.426548,6.171297,38.075947
1750.000000,0.232422,-1.087402,-0.060059,175.000000,9.456635,6.710052,-14.343262,175.000000,77.549957,28.649963,-60.150009,175.000000,0.177062,-0.979366,-0.097425,-9.035631,-0.856091,1.930440,0.753887,0.292287,-0.588407,12.523540,6.068816,38.218578,12.523540,6.068816,38.218578
1760.000000,0.223633,-1.118652,-0.060547,176.000000,8.724213,8.907318,-14.221191,176.000000,76.799957,30.299957,-60.600006,176.000000,0.180081,-0.979261,-0.092834,-8.766163,0.700468,2.034212,0.753287,0.291440,-0.589594,12.620835,5.970251,38.381584,12.620835,5.970251,38.381584
1770.000000,0.235840,-1.123047,-0.056152,177.000000,9.395599,11.470795,-14.221191,177.000000,76.799957,30.299957,-58.800003,177.000000,0.183087,-0.979151,-0.087985,-7.143677,2.472332,2.004708,0.752962,0.291001,-0.590226,12.719610,5.861464,38.567532,12.719610,5.861464,38.567532
1780.000000,0.265137,-1.185547,-0.062988,178.000000,11.348724,15.010834,-13.732910,178.000000,76.199966,30.299957,-58.800003,178.000000,0.186154,-0.979005,-0.083043,-4.406109,5.018326,2.437199,0.752929,0.291323,-0.590109,12.815121,5.729986,38.784779,12.815121,5.729986,38.784779
1790.000000,0.301758,-1.233886,-0.054199,179.000000,14.217377,19.161224,-11.718750,179.000000,77.249954,30.599960,-60.300003,179.000000,0.189659,-0.978738,-0.078111,-1.008910,7.912714,4.283278,0.753086,0.292178,-0.589486,12.892998,5.567315,39.038052,12.892998,5.567315,39.038052
1800.000000,0.323730,-1.277344,-0.061523,180.000000,13.912201,22.579193,-7.202148,180.000000,77.249954,29.849960,-59.850006,180.000000,0.193930,-0.978277,-0.073244,-0.932646,9.830515,8.349903,0.753263,0.293125,-0.588789,12.929974,5.405264,39.319145,12.929974,5.405264,39.319145
1810.000000,0.363281,-1.241211,-0.056641,181.000000,9.456635,25.020599,-0.854492,181.000000,75.449966,29.849960,-59.850006,181.000000,0.199258,-0.977544,-0.068583,-4.829370,10.613986,13.790698,0.753373,0.293850,-0.588287,12.910170,5.284748,39.617828,12.910170,5.284748,39.617828
1820.000000,0.389160,-1.100586,-0.091309,182.000000,1.522064,27.645111,6.526947,182.000000,74.399963,32.549957,-60.600006,182.000000,0.206199,-0.976378,-0.064559,-11.704347,11.465882,19.705639,0.752922,0.294920,-0.588328,12.826501,5.239796,39.936325,12.826501,5.239796,39.936325
1830.000000,0.405273,-0.968261,-0.132812,183.000000,-6.591797,30.452728,12.325287,183.000000,74.399963,31.049957,-59.850006,183.000000,0.215375,-0.974558,-0.062052,-18.122055,12.377169,23.528902,0.751575,0.296974,-0.589017,12.698422,5.272463,40.277489,12.698422,5.272463,40.277489
1840.000000,0.389648,-0.835449,-0.176270,184.000000,-13.549805,32.588959,11.959076,184.000000,76.349960,31.049957,-59.850006,184.000000,0.226970,-0.971924,-0.062037,-22.820002,12.521994,21.041527,0.749909,0.299427,-0.589898,12.590146,5.372846,40.635056,12.590146,5.372846,40.635056
1850.000000,0.334961,-0.779297,-0.187012,185.000000,-16.113281,33.992767,9.395599,185.000000,76.649963,30.899963,-59.400009,185.000000,0.240367,-0.968502,-0.065023,-22.828718,11.906593,16.584347,0.748711,0.301500,-0.590365,12.525032,5.500118,41.000954,12.525032,5.500118,41.000954
1860.000000,0.269531,-0.759765,-0.172852,186.000000,-16.784668,33.138275,4.634857,186.000000,75.899963,29.699966,-59.700012,186.000000,0.254146,-0.964574,-0.070751,-20.940563,9.138363,10.341686,0.748186,0.302831,-0.590348,12.524326,5.638507,41.352097,12.524326,5.638507,41.352097
1870.000000,0.229980,-0.798828,-0.154785,187.000000,-15.014648,28.865814,0.000000,187.000000,75.899963,31.649963,-59.100006,187.000000,0.266710,-0.960585,-0.078376,-16.798508,3.301532,4.711139,0.748101,0.303542,-0.590090,12.584190,5.766171,41.654884,12.584190,5.766171,41.654884
1880.000000,0.196777,-0.853027,-0.132324,188.000000,-13.916016,21.175385,-2.136230,188.000000,74.849960,31.649963,-59.100006,188.000000,0.276795,-0.956993,-0.086887,-13.587358,-5.320938,1.931566,0.748105,0.304397,-0.589645,12.676075,5.890980,41.876785,12.676075,5.890980,41.876785
1890.000000,0.202637,-0.892090,-0.097168,189.000000,-13.671875,12.874603,-1.647949,189.000000,74.999954,31.649963,-59.100006,189.000000,0.283718,-0.954172,-0.095187,-11.415251,-13.774011,1.891484,0.747959,0.305736,-0.589138,12.769895,6.021082,42.013683,12.769895,6.021082,42.013683
1900.000000,0.208984,-0.910156,-0.095703,190.000000,-13.366699,3.780365,0.000000,190.000000,74.999954,33.299957,-59.250000,190.000000,0.287555,-0.952278,-0.102364,-9.326306,-22.215296,2.956935,0.747573,0.307605,-0.588655,12.850547,6.154362,42.059830,12.850547,6.154362,42.059830
1910.000000,0.220215,-0.907715,-0.089844,191.000000,-13.061523,-4.028320,1.949310,191.000000,74.849960,33.299957,-59.250000,191.000000,0.288861,-0.951252,-0.108067,-7.379730,-28.625233,4.208889,0.746883,0.310247,-0.588144,12.912265,6.288904,42.030006,12.912265,6.288904,42.030006
1920.000000,0.242187,-0.922851,-0.090820,192.000000,-12.451172,-10.742188,2.437592,192.000000,74.999954,30.449966,-59.700012,192.000000,0.288379,-0.950909,-0.112293,-5.278860,-33.334763,3.940954,0.746039,0.312941,-0.587787,12.967547,6.419845,41.936729,12.967547,6.419845,41.936729
1930.000000,0.250488,-0.942383,-0.079102,193.000000,-11.901855,-16.113281,2.010345,193.000000,74.999954,31.349960,-58.200012,193.000000,0.286827,-0.951052,-0.115023,-3.395050,-36.233482,2.805167,0.745451,0.314607,-0.587643,13.024150,6.546006,41.794121,13.024150,6.546006,41.794121
1940.000000,0.262207,-0.969726,-0.070312,194.000000,-10.498047,-18.066406,1.522064,194.000000,75.449966,31.349960,-58.200012,194.000000,0.284662,-0.951567,-0.116136,-0.841222,-35.479389,1.696966,0.745402,0.315358,-0.587303,13.081842,6.657134,41.635765,13.081842,6.657134,41.635765
1950.000000,0.261719,-0.968750,-0.082520,195.000000,-10.070801,-16.479492,1.094818,195.000000,73.499954,29.849960,-60.300003,195.000000,0.282158,-0.952364,-0.115713,0.564524,-31.269142,0.734960,0.745587,0.315381,-0.587055,13.139538,6.761236,41.496334,13.139538,6.761236,41.496334
1960.000000,0.270508,-0.986816,-0.090332,196.000000,-9.399414,-11.047363,0.545502,196.000000,73.499954,31.199966,-59.100006,196.000000,0.279521,-0.953319,-0.114236,2.082146,-23.620596,-0.264796,0.745418,0.314687,-0.587643,13.198233,6.854788,41.413940,13.198233,6.854788,41.413940
1970.000000,0.278809,-0.984375,-0.090820,197.000000,-9.643555,-3.051758,1.399994,197.000000,76.499954,31.199966,-59.100006,197.000000,0.276988,-0.954303,-0.112179,2.587123,-14.081027,0.164256,0.745095,0.313764,-0.588546,13.244257,6.946287,41.412811,13.244257,6.946287,41.412811
1980.000000,0.284668,-0.984863,-0.103027,198.000000,-10.131836,6.282806,2.559662,198.000000,75.449966,31.349960,-58.200012,198.000000,0.274828,-0.955192,-0.109899,2.805858,-4.018572,0.848122,0.745254,0.312883,-0.588813,13.275319,7.037919,41.503395,13.275319,7.037919,41.503395
1990.000000,0.296875,-0.994629,-0.103516,199.000000,-11.230469,16.170502,3.658295,199.000000,74.849960,31.049957,-59.550003,199.000000,0.273230,-0.955898,-0.107722,2.878627,5.732611,1.412254,0.745829,0.312077,-0.588512,13.292998,7.131027,41.688358,13.292998,7.131027,41.688358
2000.000000,0.286621,-0.993164,-0.090332,200.000000,-13.061523,32.649994,5.062103,200.000000,75.899963,30.149963,-59.100006,200.000000,0.272210,-0.956416,-0.105684,1.299614,20.938383,2.214999,0.746515,0.311119,-0.588150,13.295273,7.242522,42.030151,13.295273,7.242522,42.030151
2010.000000,0.292969,-0.993164,-0.096680,201.000000,-13.793945,38.265228,5.550385,201.000000,74.999954,30.449966,-59.400009,201.000000,0.271663,-0.956793,-0.103668,1.367896,24.380045,2.065380,0.747233,0.309787,-0.587941,13.291991,7.356529,42.419128,13.291991,7.356529,42.419128
2020.000000,0.273926,-0.998047,-0.091309,202.000000,-15.441895,41.988373,5.550385,202.000000,74.999954,30.599960,-56.400009,202.000000,0.271387,-0.957083,-0.101694,0.549462,25.627089,1.453616,0.748051,0.308462,-0.587597,13.288378,7.482032,42.835609,13.288378,7.482032,42.835609
2030.000000,0.259766,-0.978515,-0.117187,203.000000,-16.784668,44.307709,5.245209,203.000000,76.799957,30.599960,-56.400009,203.000000,0.271002,-0.957369,-0.100009,0.090452,25.328463,0.596459,0.749420,0.307520,-0.586346,13.287312,7.616153,43.264175,13.287312,7.616153,43.264175
2040.000000,0.264160,-0.987793,-0.121582,204.000000,-16.967773,45.955658,4.878998,204.000000,75.299957,31.349960,-57.450012,204.000000,0.270277,-0.957677,-0.099021,0.779400,24.317305,-0.248455,0.751346,0.307033,-0.584132,13.288955,7.748178,43.696857,13.288955,7.748178,43.696857
2050.000000,0.239746,-0.987304,-0.118164,205.000000,-17.639160,45.711517,5.123138,205.000000,75.299957,30.899963,-57.300003,205.000000,0.269098,-0.958027,-0.098840,0.939763,21.490366,-0.436765,0.753148,0.307051,-0.581797,13.286757,7.883887,44.115170,13.286757,7.883887,44.115170
2060.000000,0.247559,-0.973144,-0.129395,206.000000,-16.906738,43.819427,4.695892,206.000000,74.549957,30.899963,-57.300003,206.000000,0.267362,-0.958460,-0.099354,2.425745,17.246243,-1.249623,0.754471,0.307443,-0.579873,13.286731,8.010258,44.504124,13.286731,8.010258,44.504124
2070.000000,0.262695,-0.980469,-0.118164,207.000000,-17.028809,40.645599,4.329681,207.000000,74.849960,28.949966,-56.250000,207.000000,0.265345,-0.958907,-0.100450,2.958856,12.071765,-1.930264,0.755495,0.307707,-0.578397,13.287918,8.136539,44.852356,13.287918,8.136539,44.852356
2080.000000,0.272461,-0.976562,-0.137207,208.000000,-16.174316,36.434174,3.780365,208.000000,74.849960,29.399963,-55.500000,208.000000,0.263527,-0.959244,-0.102004,4.369584,6.299119,-2.720889,0.756648,0.307348,-0.577080,13.292343,8.253715,45.150349,13.292343,8.253715,45.150349
2090.000000,0.272461,-1.002929,-0.100098,209.000000,-17.395020,31.978607,2.742767,209.000000,73.799957,29.399963,-55.500000,209.000000,0.262117,-0.959443,-0.103751,3.658840,0.759955,-3.901072,0.758002,0.306547,-0.575727,13.305221,8.382548,45.396442,13.305221,8.382548,45.396442
2100.000000,0.285156,-0.994629,-0.110840,210.000000,-18.615723,26.729584,2.986908,210.000000,74.849960,30.149963,-55.500000,210.000000,0.261154,-0.959546,-0.105216,2.994701,-5.070095,-3.740131,0.759300,0.305819,-0.574402,13.314346,8.522483,45.583984,13.314346,8.522483,45.583984
2110.000000,0.289551,-1.003418,-0.104004,211.000000,-20.507812,22.884369,2.986908,211.000000,74.849960,30.449966,-56.250000,211.000000,0.260744,-0.959546,-0.106227,1.733503,-9.042487,-3.812273,0.760399,0.305451,-0.573143,13.322833,8.679355,45.728252,13.322833,8.679355,45.728252
2120.000000,0.298340,-1.016113,-0.088379,212.000000,-21.057129,20.503998,3.353119,212.000000,73.649963,30.449966,-56.250000,212.000000,0.260943,-0.959439,-0.106699,1.857407,-11.241775,-3.513578,0.761071,0.305549,-0.572198,13.327815,8.839043,45.845226,13.327815,8.839043,45.845226
2130.000000,0.283203,-1.019531,-0.080078,213.000000,-22.033691,19.893646,2.925873,213.000000,74.549957,31.049957,-54.600006,213.000000,0.261585,-0.959302,-0.106365,1.555079,-11.518489,-3.985978,0.761323,0.306211,-0.571510,13.337641,9.004732,45.953579,13.337641,9.004732,45.953579
2140.000000,0.278320,-1.036133,-0.075684,214.000000,-22.644043,19.527435,3.536224,214.000000,74.549957,29.699966,-55.800003,214.000000,0.262294,-0.959243,-0.105137,1.622876,-11.494619,-3.410644,0.761527,0.307202,-0.570704,13.342094,9.171646,46.055893,13.342094,9.171646,46.055893
2150.000000,0.294922,-1.026855,-0.075195,215.000000,-23.620605,19.039154,3.231049,215.000000,73.799957,29.699966,-55.800003,215.000000,0.262923,-0.959290,-0.103120,1.328479,-11.546109,-3.747081,0.761733,0.307902,-0.570053,13.350133,9.342405,46.151157,13.350133,9.342405,46.151157
2160.000000,0.303711,-1.042969,-0.079102,216.000000,-23.986816,18.795013,2.681732,216.000000,75.299957,28.949966,-55.800003,216.000000,0.263701,-0.959350,-0.100546,1.637921,-11.316060,-4.274284,0.761916,0.307924,-0.569796,13.364241,9.510290,46.242073,13.364241,9.510290,46.242073
2170.000000,0.294434,-1.053222,-0.078613,217.000000,-22.888184,18.978119,2.559662,217.000000,73.199966,30.899963,-55.500000,217.000000,0.264674,-0.959380,-0.097659,3.316050,-10.654130,-4.331831,0.762089,0.307596,-0.569742,13.380333,9.660635,46.332958,13.380333,9.660635,46.332958
2180.000000,0.308105,-1.042969,-0.083984,218.000000,-22.399902,19.283295,2.986908,218.000000,73.199966,30.299957,-53.850006,218.000000,0.265735,-0.959386,-0.094674,4.255140,-9.891456,-3.842672,0.762086,0.307755,-0.569659,13.393092,9.799658,46.425255,13.393092,9.799658,46.425255
2190.000000,0.300781,-1.033691,-0.071777,219.000000,-21.911621,19.405365,3.597260,219.000000,73.499954,30.299957,-53.850006,219.000000,0.266938,-0.959340,-0.091713,5.098304,-9.331398,-3.205434,0.762101,0.308574,-0.569197,13.400963,9.927617,46.516975,13.400963,9.927617,46.516975
2200.000000,0.291504,-1.030273,-0.073242,220.000000,-21.728516,18.978119,4.390717,220.000000,74.549957,28.949966,-53.700012,220.000000,0.268201,-0.959265,-0.088762,5.558601,-9.309142,-2.435116,0.762523,0.309373,-0.568196,13.402324,10.047736,46.601898,13.402324,10.047736,46.601898
2210.000000,0.274902,-1.019531,-0.085937,221.000000,-21.545410,18.733978,4.451752,221.000000,74.549957,29.699966,-52.950012,221.000000,0.269230,-0.959232,-0.085961,5.958756,-9.078453,-2.421685,0.763573,0.309651,-0.566633,13.404209,10.160343,46.680775,13.404209,10.160343,46.680775
2220.000000,0.277344,-1.007812,-0.085937,222.000000,-20.874023,17.818451,5.062103,222.000000,73.949966,29.699966,-52.950012,222.000000,0.269843,-0.959270,-0.083583,6.769434,-9.475283,-1.874799,0.765120,0.309636,-0.564550,13.400743,10.261295,46.746151,13.400743,10.261295,46.746151
2230.000000,0.261719,-0.999511,-0.077637,223.000000,-20.812988,16.292572,4.329681,223.000000,73.949966,28.799957,-54.300003,223.000000,0.270015,-0.959387,-0.081659,6.901777,-10.386395,-2.651749,0.766712,0.309441,-0.562493,13.404677,10.357337,46.792274,13.404677,10.357337,46.792274
2240.000000,0.246582,-1.005859,-0.088379,224.000000,-20.019531,13.973236,3.292084,224.000000,73.949966,30.599960,-54.600006,224.000000,0.269593,-0.959636,-0.080114,7.697381,-11.939771,-3.644533,0.767885,0.309066,-0.561098,13.418158,10.441826,46.812645,13.418158,10.441826,46.812645
2250.000000,0.258301,-0.997070,-0.079102,225.000000,-19.226074,11.653900,3.414154,225.000000,71.249954,30.599960,-54.600006,225.000000,0.268503,-0.960039,-0.078939,8.396252,-13.315952,-3.429862,0.768154,0.309179,-0.560667,13.428840,10.515416,46.809490,13.428840,10.515416,46.809490
2260.000000,0.244629,-0.989746,-0.092285,226.000000,-17.639160,8.968353,2.376556,226.000000,72.899963,27.899963,-52.950012,226.000000,0.266929,-0.960544,-0.078133,9.762951,-14.875105,-4.329755,0.767666,0.309662,-0.561069,13.447578,10.570978,46.781174,13.447578,10.570978,46.781174
2270.000000,0.249023,-0.982910,-0.097656,227.000000,-16.235352,7.076263,2.193451,227.000000,72.899963,29.549957,-53.250000,227.000000,0.265003,-0.961102,-0.077815,10.801407,-15.486506,-4.319415,0.767237,0.309714,-0.561627,13.465432,10.611241,46.735889,13.465432,10.611241,46.735889
2280.000000,0.252441,-0.968750,-0.103516,228.000000,-14.892578,4.634857,1.399994,228.000000,73.049957,29.549957,-53.250000,228.000000,0.262912,-0.961652,-0.078120,11.652370,-16.512848,-4.877460,0.767099,0.309548,-0.561907,13.488219,10.637849,46.668049,13.488219,10.637849,46.668049
2290.000000,0.255371,-0.964355,-0.112793,229.000000,-13.977051,2.986908,0.423431,229.000000,73.199966,28.649963,-53.400009,229.000000,0.260931,-0.962110,-0.079113,12.036654,-16.630552,-5.544775,0.767121,0.309357,-0.561981,13.517785,10.655484,46.585587,13.517785,10.655484,46.585587
2300.000000,0.248535,-0.921875,-0.124023,230.000000,-13.732910,2.986908,-0.427246,230.000000,73.799957,28.799957,-53.850006,230.000000,0.259236,-0.962419,-0.080912,24.719925,-15.624516,-5.550573,0.760841,0.312483,-0.568748,13.548375,10.538486,46.511456,13.548375,10.538486,46.511456
2310.000000,0.249512,-0.897461,-0.126465,231.000000,-14.343262,3.292084,-1.098633,231.000000,73.049957,28.649963,-52.350006,231.000000,0.257935,-0.962538,-0.083611,22.920132,-16.451193,-5.239340,0.742880,0.321647,-0.587089,13.577434,10.427008,46.448616,13.577434,10.427008,46.448616
2320.000000,0.243652,-0.895019,-0.119629,232.000000,-13.305664,4.695892,-1.464844,232.000000,72.599960,29.699966,-52.350006,232.000000,0.257055,-0.962466,-0.087074,21.186754,-14.813755,-4.880038,0.721089,0.332248,-0.607982,13.604956,10.321856,46.426666,13.604956,10.321856,46.426666
2330.000000,0.234863,-0.863281,-0.126465,233.000000,-13.305664,5.733490,-2.380371,233.000000,72.599960,28.499954,-53.850006,233.000000,0.256503,-0.962244,-0.091060,19.520695,-13.259562,-4.532844,0.702024,0.340975,-0.625219,13.631379,10.223539,46.438854,13.631379,10.223539,46.438854
2340.000000,0.229004,-0.852051,-0.132324,234.000000,-13.488770,6.954193,-4.638672,234.000000,73.649963,28.499954,-53.850006,234.000000,0.256154,-0.961905,-0.095518,0.874760,-11.787407,-4.198042,0.700135,0.341384,-0.627111,13.656986,10.307145,46.454330,13.656986,10.307145,46.454330
2350.000000,0.214355,-0.823242,-0.120605,235.000000,-12.207031,7.320404,-6.652832,235.000000,72.749954,29.549957,-52.800003,235.000000,0.255873,-0.961486,-0.100363,-0.309013,6.589857,-0.026229,0.734848,0.321326,-0.597284,13.642452,10.406806,46.582142,13.642452,10.406806,46.582142
2360.000000,0.218262,-0.844726,-0.134277,236.000000,-11.169434,7.869720,-7.751465,236.000000,72.749954,28.199966,-52.350006,236.000000,0.255513,-0.961041,-0.105417,-0.865524,7.503243,0.933872,0.770471,0.292641,-0.566336,13.617771,10.517066,46.653091,13.617771,10.517066,46.653091
2370.000000,0.215332,-0.868652,-0.115234,237.000000,-9.338379,8.358002,-10.437012,237.000000,73.649963,28.199966,-52.350006,237.000000,0.254949,-0.960625,-0.110461,-2.072041,8.836062,0.699539,0.778028,0.275806,-0.564450,13.594275,10.644874,46.725872,13.594275,10.644874,46.725872
2380.000000,0.208496,-0.909179,-0.109863,238.000000,-5.493164,8.113861,-11.657715,238.000000,73.199966,29.249954,-52.800003,238.000000,0.253957,-0.960351,-0.115032,-3.401676,7.278181,1.942056,0.770027,0.269739,-0.578186,13.556466,10.791692,46.801746,13.556466,10.791692,46.801746
2390.000000,0.224121,-0.959472,-0.091797,239.000000,-2.258301,7.503510,-12.756348,239.000000,73.199966,29.549957,-52.800003,239.000000,0.252349,-0.960346,-0.118561,-4.722172,5.883636,2.195849,0.756943,0.269583,-0.595284,13.512836,10.957070,46.889999,13.512836,10.957070,46.889999
2400.000000,0.236816,-1.019043,-0.069824,240.000000,1.033783,7.076263,-12.268066,240.000000,74.399963,29.549957,-52.800003,240.000000,0.250210,-0.960672,-0.120430,-5.970932,5.811467,3.003594,0.744046,0.271695,-0.610390,13.456828,11.139235,47.001724,13.456828,11.139235,47.001724
2410.000000,0.234375,-1.072754,-0.058105,241.000000,5.428314,7.320404,-13.000488,241.000000,71.249954,29.549957,-51.000000,241.000000,0.247616,-0.961385,-0.120104,-5.981682,4.497436,3.789694,0.733046,0.274244,-0.622441,13.387471,11.323847,47.119831,13.387471,11.323847,47.119831
2420.000000,0.234375,-1.141113,-0.049316,242.000000,8.785248,8.174896,-12.145996,242.000000,71.249954,28.949966,-52.650009,242.000000,0.244392,-0.962540,-0.117431,-7.136570,5.029617,4.202722,0.724054,0.276808,-0.631761,13.307192,11.520005,47.258175,13.307192,11.520005,47.258175
2430.000000,0.241699,-1.174316,-0.043945,243.000000,11.837006,9.456635,-10.437012,243.000000,71.849960,28.949966,-52.650009,243.000000,0.240452,-0.964106,-0.112615,-7.115407,4.446655,4.856665,0.717129,0.279127,-0.638604,13.212305,11.714149,47.401707,13.212305,11.714149,47.401707
2440.000000,0.247559,-1.194336,-0.053711,244.000000,12.386322,10.433197,-8.911133,244.000000,71.249954,28.799957,-52.200012,244.000000,0.236032,-0.965923,-0.106219,33.970280,-2.817563,-14.818516,0.713300,0.281362,-0.641903,13.310020,11.483989,47.477135,13.310020,11.483989,47.477135
2450.000000,0.279785,-1.210937,-0.055664,245.000000,11.959076,12.020111,-6.286621,245.000000,71.249954,29.699966,-52.350006,245.000000,0.231689,-0.967737,-0.099022,30.745184,-0.871233,-11.108478,0.713576,0.284329,-0.640286,13.374707,11.253957,47.566570,13.374707,11.253957,47.566570
2460.000000,0.288574,-1.191406,-0.087402,246.000000,10.066986,13.607025,-3.662109,246.000000,72.149963,29.699966,-52.350006,246.000000,0.228121,-0.969286,-0.091902,26.276936,0.912905,-7.671906,0.717299,0.288313,-0.634316,13.407972,11.038547,47.663582,13.407972,11.038547,47.663582
2470.000000,0.309570,-1.149414,-0.088867,247.000000,7.503510,16.231537,-1.403809,247.000000,72.599960,28.799957,-52.500000,247.000000,0.225878,-0.970379,-0.085700,21.447090,3.534404,-4.848832,0.723230,0.292702,-0.625511,13.415642,10.845182,47.773994,13.415642,10.845182,47.773994
2480.000000,0.331543,-1.139160,-0.107422,248.000000,5.245209,19.283295,0.667572,248.000000,71.099960,29.249954,-53.250000,248.000000,0.225369,-0.970911,-0.080868,17.238770,6.328337,-2.426263,0.730311,0.296873,-0.615233,13.402150,10.672101,47.899258,13.402150,10.672101,47.899258
2490.000000,0.346191,-1.109375,-0.106934,249.000000,2.986908,22.457123,2.071381,249.000000,71.099960,29.849960,-52.500000,249.000000,0.226814,-0.970848,-0.077521,13.323116,8.977570,-0.839063,0.737445,0.300827,-0.604713,13.376805,10.520694,48.039745,13.376805,10.520694,48.039745
2500.000000,0.350098,-1.085937,-0.131348,250.000000,0.789642,24.654388,2.620697,250.000000,71.699966,29.849960,-52.500000,250.000000,0.230131,-0.970211,-0.075702,9.748426,10.433505,-0.201002,0.744076,0.304733,-0.594549,13.350462,10.391772,48.186142,13.350462,10.391772,48.186142
2510.000000,0.328125,-1.052734,-0.117676,251.000000,-1.220703,25.386810,2.132416,251.000000,71.249954,29.699966,-52.950012,251.000000,0.234869,-0.969102,-0.075349,6.619631,10.325039,-0.608939,0.749972,0.308400,-0.585177,13.335022,10.284818,48.325108,13.335022,10.284818,48.325108
2520.000000,0.321777,-1.009765,-0.120605,252.000000,-4.028320,23.616791,1.216888,252.000000,71.249954,29.699966,-50.850006,252.000000,0.240413,-0.967679,-0.076153,2.969220,7.793086,-1.388570,0.755022,0.311638,-0.576909,13.335441,10.208593,48.433769,13.335441,10.208593,48.433769
2530.000000,0.297363,-0.958496,-0.115234,253.000000,-5.859375,19.771576,0.789642,253.000000,71.699966,29.699966,-50.850006,253.000000,0.246298,-0.966067,-0.077798,0.552087,3.461948,-1.629604,0.759455,0.314446,-0.569519,13.347050,10.153926,48.493519,13.347050,10.153926,48.493519
2540.000000,0.268066,-0.932617,-0.110352,254.000000,-7.507324,15.621185,0.667572,254.000000,72.149963,28.199966,-52.350006,254.000000,0.252038,-0.964401,-0.080049,-1.486470,-0.805935,-1.552073,0.763371,0.316411,-0.563159,13.366490,10.119317,48.503391,13.366490,10.119317,48.503391
2550.000000,0.251465,-0.908203,-0.108887,255.000000,-8.483887,8.541107,1.277924,255.000000,72.149963,29.549957,-52.500000,255.000000,0.257124,-0.962835,-0.082684,-2.703872,-7.510272,-0.774676,0.766544,0.317142,-0.558418,13.385674,10.098238,48.437252,13.385674,10.098238,48.437252
2560.000000,0.252930,-0.898926,-0.079590,256.000000,-7.873535,2.132416,1.033783,256.000000,71.699966,29.549957,-52.500000,256.000000,0.261364,-0.961458,-0.085367,-2.289597,-12.973988,-0.877807,0.768739,0.317157,-0.555384,13.411987,10.074913,48.305279,13.411987,10.074913,48.305279
2570.000000,0.233887,-0.887207,-0.058105,257.000000,-6.469727,-5.310059,1.094818,257.000000,71.399963,30.149963,-52.650009,257.000000,0.264760,-0.960336,-0.087506,-1.142917,-18.912989,-0.676940,0.769875,0.317138,-0.553820,13.441284,10.040947,48.100788,13.441284,10.040947,48.100788
2580.000000,0.249023,-0.867187,-0.041016,258.000000,-5.920410,-11.169434,0.000000,258.000000,71.399963,28.799957,-51.000000,258.000000,0.267396,-0.959507,-0.088579,-0.906773,-22.761259,-1.596216,0.770270,0.317177,-0.553247,13.483901,10.003637,47.842316,13.483901,10.003637,47.842316
2590.000000,0.239746,-0.837890,-0.041504,259.000000,-5.249023,-17.211914,-0.793457,259.000000,71.099960,28.799957,-51.000000,259.000000,0.269486,-0.958935,-0.088436,-1.387873,-26.371473,-2.143035,0.770440,0.317032,-0.553094,13.535933,9.968760,47.529694,13.535933,9.968760,47.529694
2600.000000,0.229004,-0.781738,-0.057129,260.000000,-5.920410,-23.071289,-1.037598,260.000000,71.099960,29.249954,-52.800003,260.000000,0.271191,-0.958549,-0.087401,-1.472527,-29.399933,-2.109818,0.770365,0.316670,-0.553407,13.591327,9.931602,47.166359,13.591327,9.931602,47.166359
2610.000000,0.222656,-0.758789,-0.059570,261.000000,-6.225586,-24.414062,-0.366211,261.000000,70.949966,29.249954,-52.800003,261.000000,0.272680,-0.958251,-0.086026,-2.011481,-27.739479,-1.195712,0.769781,0.316220,-0.554474,13.640774,9.896580,46.798607,13.640774,9.896580,46.798607
2620.000000,0.215332,-0.735351,-0.058594,262.000000,-7.202148,-25.817871,0.789642,262.000000,71.399963,28.649963,-52.650009,262.000000,0.274068,-0.957980,-0.084629,-3.139221,-26.173765,0.108605,0.768852,0.315611,-0.556108,13.679525,9.870198,46.426605,13.679525,9.870198,46.426605
2630.000000,0.238769,-0.735351,-0.044434,263.000000,-7.751465,-26.062012,1.155853,263.000000,72.149963,29.549957,-53.550003,263.000000,0.275516,-0.957692,-0.083172,-3.750534,-23.532999,0.546286,0.767870,0.314787,-0.557929,13.715606,9.848027,46.061928,13.715606,9.848027,46.061928
2640.000000,0.234863,-0.754883,-0.043457,264.000000,-7.385254,-26.489258,1.094818,264.000000,72.149963,29.549957,-52.800003,264.000000,0.277273,-0.957333,-0.081441,-3.419956,-21.202982,0.536010,0.766961,0.313993,-0.559624,13.753617,9.820691,45.702473,13.753617,9.820691,45.702473
2650.000000,0.236816,-0.791015,-0.027344,265.000000,-6.042480,-27.893066,-2.319336,265.000000,72.749954,29.549957,-52.800003,265.000000,0.279223,-0.956955,-0.079196,-2.170439,-19.925077,-2.682821,0.766303,0.313412,-0.560850,13.826601,9.778111,45.338200,13.826601,9.778111,45.338200
2660.000000,0.226074,-0.891601,-0.011719,266.000000,-3.356934,-29.602051,-6.042480,266.000000,72.299957,30.149963,-51.600006,266.000000,0.280763,-0.956760,-0.076040,0.265463,-18.972448,-5.913398,0.766077,0.313167,-0.561295,13.936374,9.706329,44.965473,13.936374,9.706329,44.965473
2670.000000,0.215820,-1.015625,0.008301,267.000000,0.789642,-32.470703,-8.300781,267.000000,72.299957,30.149963,-52.950012,267.000000,0.280835,-0.957095,-0.071425,3.890788,-19.138393,-7.445767,0.766153,0.313442,-0.561038,14.066053,9.589823,44.572479,14.066053,9.589823,44.572479
2680.000000,0.202637,-1.137207,0.005371,268.000000,4.512787,-36.010742,-8.666992,268.000000,73.949966,30.149963,-52.950012,268.000000,0.278239,-0.958304,-0.065087,6.788139,-19.860123,-7.009846,0.766352,0.314024,-0.560441,14.193477,9.431511,44.152706,14.193477,9.431511,44.152706
2690.000000,0.200195,-1.195312,-0.021484,269.000000,8.296967,-38.085938,-5.981445,269.000000,72.599960,29.849960,-53.850006,269.000000,0.272341,-0.960475,-0.057605,9.471878,-19.044252,-3.665362,0.766592,0.314510,-0.559839,14.284838,9.230216,43.720730,14.284838,9.230216,43.720730
2700.000000,0.225098,-1.231933,-0.049805,270.000000,11.959076,-38.391113,-0.122070,270.000000,72.599960,30.599960,-53.850006,270.000000,0.263669,-0.963301,-0.050296,11.774877,-16.532688,2.444515,0.766575,0.314911,-0.559637,14.306492,8.988190,43.294209,14.306492,8.988190,43.294209
2710.000000,0.251465,-1.252441,-0.073242,271.000000,14.217377,-36.193848,5.733490,271.000000,72.749954,30.599960,-53.850006,271.000000,0.253704,-0.966262,-0.044399,12.494767,-11.778500,8.022018,0.766148,0.315481,-0.559901,14.258407,8.721712,42.897903,14.258407,8.721712,42.897903
2720.000000,0.287598,-1.283691,-0.096191,272.000000,13.423920,-31.311035,10.433197,272.000000,72.899963,30.149963,-54.000000,272.000000,0.244059,-0.968909,-0.040637,10.187096,-4.815183,11.989362,0.765504,0.316141,-0.560409,14.153756,8.463757,42.557602,14.153756,8.463757,42.557602
2730.000000,0.311035,-1.280761,-0.113770,273.000000,11.959076,-25.085449,14.949799,273.000000,72.899963,30.299957,-54.600006,273.000000,0.235970,-0.970967,-0.039264,7.394928,2.858700,15.398932,0.764770,0.316606,-0.561148,13.997364,8.223597,42.285236,13.997364,8.223597,42.285236
2740.000000,0.333496,-1.298828,-0.104492,274.000000,8.663177,-18.432617,18.978119,274.000000,73.949966,30.299957,-54.600006,274.000000,0.230110,-0.972343,-0.039986,3.060734,10.277994,17.993355,0.764029,0.316767,-0.562067,13.797719,8.021322,42.083469,13.797719,8.021322,42.083469
2750.000000,0.368164,-1.293945,-0.118164,275.000000,4.207611,-11.474609,20.626068,275.000000,72.599960,28.799957,-54.300003,275.000000,0.226777,-0.973032,-0.042193,-2.025786,17.319546,18.022270,0.763449,0.316418,-0.563049,13.582015,7.869320,41.953609,13.582015,7.869320,41.953609
2760.000000,0.368164,-1.296386,-0.103027,276.000000,-0.732422,-5.065918,21.968842,276.000000,72.599960,29.549957,-54.600006,276.000000,0.225959,-0.973082,-0.045327,-7.135588,23.171503,17.688709,0.763016,0.315441,-0.564184,13.356539,7.772450,41.888680,13.356539,7.772450,41.888680
2770.000000,0.363769,-1.272949,-0.123535,277.000000,-7.141113,0.850677,21.236420,277.000000,74.699966,29.549957,-54.600006,277.000000,0.227143,-0.972628,-0.048989,-13.188804,27.967632,15.331655,0.762748,0.314091,-0.565298,13.144191,7.744653,41.882504,13.144191,7.744653,41.882504
2780.000000,0.340332,-1.210937,-0.143555,278.000000,-14.160156,5.855560,21.114349,278.000000,73.649963,30.299957,-55.950012,278.000000,0.229613,-0.971826,-0.053212,-19.261341,31.378199,13.700899,0.762658,0.312676,-0.566204,12.940256,7.791211,41.924824,12.940256,7.791211,41.924824
2790.000000,0.295410,-1.156250,-0.148437,279.000000,-20.080566,8.113861,20.381927,279.000000,73.199966,29.249954,-54.900009,279.000000,0.232582,-0.970835,-0.058183,-23.693892,31.752989,11.573197,0.762478,0.311381,-0.567160,12.751155,7.900770,41.988121,12.751155,7.900770,41.988121
2800.000000,0.247559,-1.102539,-0.176270,280.000000,-24.963379,6.099701,19.527435,280.000000,73.199966,30.599960,-54.900009,280.000000,0.235149,-0.969850,-0.064001,-26.667528,27.889132,9.465903,0.762151,0.310392,-0.568140,12.577340,8.062906,42.030540,12.577340,8.062906,42.030540
2810.000000,0.193848,-1.041015,-0.174805,281.000000,-28.503418,-0.244141,18.550873,281.000000,74.549957,30.599960,-54.900009,281.000000,0.236506,-0.969049,-0.070769,-28.003141,20.106882,7.385246,0.761850,0.309984,-0.568766,12.418303,8.264519,42.010078,12.418303,8.264519,42.010078
2820.000000,0.162598,-0.963867,-0.192871,282.000000,-29.968262,-10.070801,17.818451,282.000000,75.449966,30.449966,-55.200012,282.000000,0.236185,-0.968532,-0.078502,-27.134365,9.578866,5.687118,0.761818,0.310017,-0.568790,12.269408,8.485595,41.893349,12.269408,8.485595,41.893349
2830.000000,0.148926,-0.928222,-0.195312,283.000000,-31.372070,-20.935059,15.682220,283.000000,75.449966,28.499954,-53.850006,283.000000,0.234180,-0.968274,-0.087208,-26.178537,-1.082717,2.769078,0.762414,0.309780,-0.568121,12.142256,8.726259,41.671074,12.142256,8.726259,41.671074
2840.000000,0.153320,-0.876953,-0.194336,284.000000,-31.799316,-31.188965,13.179779,284.000000,74.699966,28.499954,-53.850006,284.000000,0.230853,-0.968161,-0.096801,-24.270933,-10.249889,-0.261618,0.763784,0.308711,-0.566861,12.038478,8.977561,41.350098,12.038478,8.977561,41.350098
2850.000000,0.155762,-0.831055,-0.193359,285.000000,-31.188965,-39.916992,9.883881,285.000000,75.299957,28.049957,-53.250000,285.000000,0.226767,-0.968044,-0.107085,-21.441298,-17.139330,-3.792619,0.765749,0.306859,-0.565213,11.964526,9.229910,40.946457,11.964526,9.229910,40.946457
2860.000000,0.155762,-0.799316,-0.185547,286.000000,-30.456543,-46.447754,5.855560,286.000000,75.299957,28.949966,-54.000000,286.000000,0.222422,-0.967801,-0.117859,-18.654465,-21.276455,-7.709661,0.768012,0.304643,-0.563339,11.926712,9.482652,40.482975,11.926712,9.482652,40.482975
2870.000000,0.160644,-0.779297,-0.177246,287.000000,-30.395508,-50.109863,2.193451,287.000000,73.649963,28.949966,-54.000000,287.000000,0.218141,-0.967374,-0.128850,-16.676298,-22.237436,-10.914231,0.770046,0.302641,-0.561639,11.920833,9.742612,39.989532,11.920833,9.742612,39.989532
2880.000000,0.150879,-0.770508,-0.184570,288.000000,-30.334473,-50.659180,0.240326,288.000000,76.499954,28.499954,-54.600006,288.000000,0.214077,-0.966754,-0.139851,-14.803308,-20.055161,-12.170375,0.771591,0.300994,-0.560401,11.929782,10.009665,39.498207,11.929782,10.009665,39.498207
2890.000000,0.128906,-0.771972,-0.151855,289.000000,-29.357910,-47.729492,-1.770020,289.000000,75.899963,28.499954,-54.600006,289.000000,0.210147,-0.966004,-0.150578,-12.508183,-14.654829,-13.328462,0.772974,0.299303,-0.559400,11.953994,10.277964,39.043434,11.953994,10.277964,39.043434
2900.000000,0.121582,-0.784668,-0.153320,290.000000,-28.564453,-34.057617,-3.601074,290.000000,77.249954,28.199966,-54.000000,290.000000,0.206058,-0.965286,-0.160509,-9.835490,0.617087,-14.166218,0.774474,0.297407,-0.558336,11.991203,10.541153,38.729580,11.991203,10.541153,38.729580
2910.000000,0.116699,-0.807129,-0.144531,291.000000,-27.526855,-24.902344,-4.089355,291.000000,77.249954,27.749954,-54.600006,291.000000,0.201424,-0.964769,-0.169264,-7.469640,10.267865,-13.594792,0.776148,0.295289,-0.557134,12.027310,10.799112,38.509205,12.027310,10.799112,38.509205
2920.000000,0.125488,-0.818359,-0.143555,292.000000,-27.648926,-16.906738,-5.371094,292.000000,74.999954,27.749954,-54.600006,292.000000,0.196149,-0.964535,-0.176628,-6.385991,17.950022,-13.779557,0.777674,0.293026,-0.556201,12.069301,11.061633,38.369392,12.069301,11.061633,38.369392
2930.000000,0.150879,-0.830078,-0.153320,293.000000,-26.489258,-8.117676,-6.042480,293.000000,76.949966,26.249954,-54.300003,293.000000,0.190679,-0.964530,-0.182544,-4.144308,25.670156,-13.312715,0.778837,0.290596,-0.555848,12.110785,11.314333,38.317005,12.110785,11.314333,38.317005
2940.000000,0.171875,-0.834472,-0.148926,294.000000,-24.658203,1.949310,-7.507324,294.000000,77.399963,27.899963,-54.450012,294.000000,0.185790,-0.964608,-0.187121,-1.435352,33.859280,-13.594235,0.779947,0.287915,-0.555687,12.160181,11.549262,38.362923,12.160181,11.549262,38.362923
2950.000000,0.195801,-0.872070,-0.141602,295.000000,-22.766113,13.179779,-7.385254,295.000000,77.399963,28.199966,-55.200012,295.000000,0.182209,-0.964673,-0.190278,1.107083,42.337105,-12.282499,0.780996,0.285530,-0.555444,12.203276,11.764547,38.516575,12.203276,11.764547,38.516575
2960.000000,0.197266,-0.902344,-0.142090,296.000000,-21.362305,25.814056,-7.141113,296.000000,76.199966,28.199966,-55.200012,296.000000,0.180262,-0.964735,-0.191811,2.962105,51.276932,-10.919113,0.781612,0.283933,-0.555396,12.240868,11.963508,38.790272,12.240868,11.963508,38.790272
2970.000000,0.200195,-0.949219,-0.125977,297.000000,-20.446777,38.692474,-5.859375,297.000000,76.949966,27.299957,-53.850006,297.000000,0.179748,-0.964886,-0.191537,4.181150,59.496426,-8.637881,0.781852,0.282952,-0.555559,12.264524,12.149170,39.184597,12.264524,12.149170,39.184597
2980.000000,0.196289,-0.973633,-0.123047,298.000000,-20.019531,49.373627,-3.417969,298.000000,76.949966,26.399963,-54.000000,298.000000,0.180204,-0.965243,-0.189293,4.813685,64.690460,-5.408695,0.782205,0.282004,-0.555544,12.264230,12.324286,39.675240,12.264230,12.324286,39.675240
2990.000000,0.182129,-1.029785,-0.113770,299.000000,-19.226074,57.125092,-0.915527,299.000000,76.199966,26.399963,-54.000000,299.000000,0.181004,-0.965907,-0.185096,5.724546,66.396057,-2.375247,0.782818,0.280676,-0.555353,12.240191,12.483176,40.230957,12.240191,12.483176,40.230957
3000.000000,0.197266,-1.075195,-0.104004,300.000000,-17.150879,62.068939,2.925873,300.000000,74.699966,27.749954,-52.200012,300.000000,0.181603,-0.966936,-0.179040,7.762368,65.020126,1.690032,0.783437,0.279481,-0.555083,12.179454,12.611395,40.822720,12.179454,12.611395,40.822720
3010.000000,0.193359,-1.120117,-0.092285,301.000000,-15.319824,64.022064,6.099701,301.000000,74.699966,28.049957,-52.200012,301.000000,0.181835,-0.968305,-0.171237,9.364062,60.654739,4.764716,0.783902,0.279315,-0.554510,12.088799,12.709873,41.420574,12.088799,12.709873,41.420574
3020.000000,0.225098,-1.169922,-0.098633,302.000000,-13.916016,63.350677,8.480072,302.000000,75.449966,28.049957,-52.200012,302.000000,0.181827,-0.969889,-0.162034,10.385510,53.920856,6.800997,0.784245,0.280288,-0.553533,11.976280,12.781743,41.998726,11.976280,12.781743,41.998726
3030.000000,0.229004,-1.202636,-0.096191,303.000000,-13.183594,59.749603,10.005951,303.000000,74.849960,26.549957,-51.750000,303.000000,0.181891,-0.971495,-0.152027,10.638656,44.753384,7.821087,0.784647,0.281668,-0.552261,11.850788,12.833186,42.528637,11.850788,12.833186,42.528637
3040.000000,0.244141,-1.222656,-0.086426,304.000000,-12.390137,53.707123,10.555267,304.000000,74.849960,24.899963,-51.600006,304.000000,0.182236,-0.972987,-0.141724,10.888460,33.860950,7.790767,0.785327,0.282370,-0.550934,11.722497,12.863692,42.986816,11.722497,12.863692,42.986816
3050.000000,0.242676,-1.219238,-0.109375,305.000000,-12.451172,45.406342,11.959076,305.000000,74.999954,24.899963,-51.600006,305.000000,0.182909,-0.974273,-0.131664,10.258520,21.606518,8.550943,0.786389,0.281700,-0.549761,11.583506,12.882367,43.351875,11.583506,12.882367,43.351875
3060.000000,0.247070,-1.205078,-0.123535,306.000000,-12.634277,36.067963,12.386322,306.000000,74.849960,27.299957,-52.200012,306.000000,0.183893,-0.975264,-0.122647,9.526611,9.319857,8.280050,0.787551,0.280313,-0.548806,11.444014,12.891891,43.615364,11.444014,12.891891,43.615364
3070.000000,0.229004,-1.189941,-0.143066,307.000000,-13.977051,25.814056,13.423920,307.000000,74.849960,27.449966,-51.900009,307.000000,0.185025,-0.975942,-0.115336,7.711660,-2.833101,8.584728,0.788362,0.279507,-0.548053,11.298281,12.905826,43.770973,11.298281,12.905826,43.770973
3080.000000,0.227051,-1.159179,-0.152832,308.000000,-14.770508,14.644623,15.193939,308.000000,73.649963,27.449966,-51.900009,308.000000,0.186069,-0.976354,-0.110048,6.547328,-14.817799,9.531655,0.788647,0.279731,-0.547528,11.139210,12.921077,43.812794,11.139210,12.921077,43.812794
3090.000000,0.221680,-1.115234,-0.172852,309.000000,-15.380859,5.184174,16.597748,309.000000,74.399963,26.999954,-51.450012,309.000000,0.186973,-0.976531,-0.106901,5.632401,-24.092796,10.011757,0.788520,0.280646,-0.547242,10.970549,12.938334,43.760574,10.970549,12.938334,43.760574
3100.000000,0.226074,-1.097656,-0.195801,310.000000,-15.502930,-3.662109,16.475677,310.000000,74.549957,25.799957,-50.700012,310.000000,0.187860,-0.976460,-0.105990,5.241042,-31.900679,8.953636,0.788423,0.281557,-0.546914,10.807476,12.955395,43.622177,10.807476,12.955395,43.622177
3110.000000,0.229492,-1.048828,-0.223633,311.000000,-15.686035,-11.779785,16.292572,311.000000,74.549957,26.399963,-50.250000,311.000000,0.188902,-0.976099,-0.107454,4.804771,-38.227215,7.893265,0.788761,0.281981,-0.546207,10.650718,12.975652,43.405670,10.650718,12.975652,43.405670
3120.000000,0.238769,-1.027344,-0.240723,312.000000,-16.418457,-18.188477,14.827728,312.000000,74.549957,26.399963,-50.250000,312.000000,0.190322,-0.975386,-0.111356,3.861993,-42.236668,5.667186,0.789518,0.282105,-0.545049,10.513214,13.007300,43.128639,10.513214,13.007300,43.128639
3130.000000,0.246582,-0.988281,-0.243164,313.000000,-16.906738,-21.789551,12.325287,313.000000,74.999954,26.399963,-49.800003,313.000000,0.192333,-0.974271,-0.117495,3.218311,-43.060017,2.616456,0.790572,0.282151,-0.543496,10.405508,13.050371,42.819344,10.405508,13.050371,42.819344
3140.000000,0.216309,-0.960449,-0.269043,314.000000,-18.676758,-22.766113,9.334564,314.000000,74.999954,25.499954,-49.950012,314.000000,0.194853,-0.972758,-0.125593,1.391158,-41.140182,-0.651838,0.791915,0.281946,-0.541644,10.332459,13.119532,42.503750,10.332459,13.119532,42.503750
3150.000000,0.210449,-0.922363,-0.284180,315.000000,-22.094727,-22.766113,6.649017,315.000000,74.849960,25.499954,-49.950012,315.000000,0.197473,-0.970886,-0.135590,-1.862234,-38.294003,-3.347871,0.793458,0.281231,-0.539754,10.290586,13.232675,42.191364,10.290586,13.232675,42.191364
3160.000000,0.185547,-0.882324,-0.289551,316.000000,-25.390625,-23.193359,4.451752,316.000000,74.699966,26.699966,-51.600006,316.000000,0.199842,-0.968677,-0.147402,-4.715207,-35.953789,-5.334963,0.794789,0.280267,-0.538295,10.274284,13.389894,41.878536,10.274284,13.389894,41.878536
3170.000000,0.168945,-0.841308,-0.291016,317.000000,-27.160645,-21.118164,3.108978,317.000000,74.699966,26.249954,-50.700012,317.000000,0.201684,-0.966167,-0.160761,-5.848221,-31.282997,-6.315586,0.795528,0.279550,-0.537575,10.274150,13.577209,41.591053,10.274150,13.577209,41.591053
3180.000000,0.166992,-0.819824,-0.282715,318.000000,-27.832031,-18.676758,2.254486,318.000000,75.749954,26.249954,-50.700012,318.000000,0.202851,-0.963395,-0.175276,-5.811913,-26.540827,-6.721904,0.795899,0.279071,-0.537274,10.284381,13.784645,41.332771,10.284381,13.784645,41.332771
3190.000000,0.153320,-0.791992,-0.270019,319.000000,-27.648926,-14.953613,0.972748,319.000000,75.599960,23.549957,-51.450012,319.000000,0.203372,-0.960407,-0.190417,-4.939371,-20.875525,-7.476955,0.796320,0.278076,-0.537167,10.308283,14.004200,41.115677,10.308283,14.004200,41.115677
3200.000000,0.140625,-0.777832,-0.252441,320.000000,-27.404785,-6.225586,-1.464844,320.000000,75.899963,25.199966,-50.850006,320.000000,0.203202,-0.957311,-0.205582,-4.063969,-10.825642,-9.245178,0.796914,0.276012,-0.537350,10.356152,14.235085,40.987823,10.356152,14.235085,40.987823
3210.000000,0.130371,-0.779297,-0.257812,321.000000,-26.611328,-2.075195,-2.868652,321.000000,75.749954,26.699966,-50.850006,321.000000,0.202203,-0.954244,-0.220302,-2.722196,-5.968040,-9.839266,0.797532,0.273847,-0.537541,10.416420,14.471171,40.902546,10.416420,14.471171,40.902546
3220.000000,0.120117,-0.768066,-0.233887,322.000000,-25.390625,1.522064,-3.479004,322.000000,75.749954,24.299957,-50.400009,322.000000,0.200261,-0.951334,-0.234221,-1.075540,-2.029995,-9.586686,0.798106,0.272270,-0.537490,10.479937,14.707202,40.853596,10.479937,14.707202,40.853596
3230.000000,0.129395,-0.777344,-0.246094,323.000000,-23.071289,5.184174,-3.784180,323.000000,75.299957,24.299957,-50.400009,323.000000,0.197444,-0.948683,-0.247017,1.486065,1.642924,-9.027442,0.798794,0.270601,-0.537311,10.542559,14.931047,40.840622,10.542559,14.931047,40.840622
3240.000000,0.127441,-0.828125,-0.215332,324.000000,-19.653320,8.480072,-4.028320,324.000000,75.899963,25.199966,-50.850006,324.000000,0.193939,-0.946405,-0.258272,4.875145,4.647052,-8.423251,0.799544,0.268724,-0.537137,10.602801,15.130314,40.859158,10.602801,15.130314,40.859158
3250.000000,0.120117,-0.911133,-0.207519,325.000000,-14.953613,13.057709,-4.394531,325.000000,74.699966,24.149963,-50.250000,325.000000,0.189674,-0.944804,-0.267149,9.183688,8.604234,-7.955368,0.800178,0.267022,-0.537043,10.660842,15.290024,40.921307,10.660842,15.290024,40.921307
3260.000000,0.129883,-1.016601,-0.186523,326.000000,-9.033203,16.780853,-3.295898,326.000000,74.699966,24.299957,-48.900009,326.000000,0.184419,-0.944288,-0.272599,14.258853,11.375088,-6.096018,0.800788,0.265506,-0.536885,10.700939,15.394799,41.017761,10.700939,15.394799,41.017761
3270.000000,0.125977,-1.133789,-0.149902,327.000000,-1.525879,21.541595,-3.051758,327.000000,74.399963,24.299957,-48.900009,327.000000,0.178077,-0.945245,-0.273496,20.366577,14.859875,-5.189081,0.801557,0.264246,-0.536358,10.730208,15.424601,41.157597,10.730208,15.424601,41.157597
3280.000000,0.141602,-1.278320,-0.126953,328.000000,5.123138,25.875092,-1.770020,328.000000,75.299957,23.549957,-49.650009,328.000000,0.170684,-0.947964,-0.268759,25.057030,17.583540,-3.347140,0.802474,0.263134,-0.535533,10.737089,15.382475,41.335350,10.737089,15.382475,41.335350
3290.000000,0.160644,-1.429199,-0.087891,329.000000,9.944916,28.621674,-1.342773,329.000000,75.299957,24.149963,-50.550003,329.000000,0.162563,-0.952426,-0.257796,27.506161,18.491232,-2.466519,0.803348,0.261884,-0.534835,10.729228,15.280275,41.534729,10.729228,15.280275,41.534729
3300.000000,0.180176,-1.580078,-0.085937,330.000000,13.301849,28.987885,1.338959,330.000000,74.849960,24.149963,-50.550003,330.000000,0.154267,-0.958214,-0.240889,28.241932,16.974945,0.505061,0.803902,0.260638,-0.534611,10.684439,15.126538,41.732475,10.684439,15.126538,41.732475
3310.000000,0.180176,-1.663574,-0.095703,331.000000,14.400482,28.560638,7.442474,331.000000,73.799957,25.199966,-49.050003,331.000000,0.146242,-0.964548,-0.219684,26.648260,14.764460,6.495161,0.804039,0.259932,-0.534749,10.570241,14.939498,41.921413,10.570241,14.939498,41.921413
3320.000000,0.200195,-1.577148,-0.135742,332.000000,11.043549,26.302338,15.682220,332.000000,73.799957,24.449966,-48.750000,332.000000,0.138999,-0.970477,-0.197112,20.827452,10.934645,13.994810,0.803948,0.260115,-0.534798,10.368168,14.762102,42.083897,10.368168,14.762102,42.083897
3330.000000,0.224609,-1.381347,-0.180176,333.000000,5.916595,23.677826,22.701263,333.000000,74.399963,24.449966,-48.750000,333.000000,0.133465,-0.975215,-0.176470,13.729751,7.038840,19.636271,0.803896,0.260849,-0.534517,10.094191,14.614017,42.216515,10.094191,14.614017,42.216515
3340.000000,0.259766,-1.170898,-0.230469,334.000000,-1.831055,22.640228,25.264740,334.000000,73.499954,24.749954,-49.350006,334.000000,0.130657,-0.978393,-0.160237,4.676833,4.965627,20.461926,0.803890,0.261768,-0.534077,9.796841,14.525702,42.335258,9.796841,14.525702,42.335258
3350.000000,0.275391,-1.000000,-0.278809,335.000000,-8.483887,22.701263,24.715424,335.000000,73.499954,24.899963,-49.050003,335.000000,0.131151,-0.980004,-0.149639,-2.576799,4.100813,18.162540,0.803702,0.262912,-0.533798,9.511141,14.491962,42.451580,9.511141,14.491962,42.451580
3360.000000,0.272461,-0.845215,-0.303223,336.000000,-14.282227,22.518158,22.701263,336.000000,73.949966,24.899963,-49.050003,336.000000,0.134889,-0.980206,-0.144919,-8.386601,3.060502,14.588840,0.803350,0.264253,-0.533666,9.255154,14.510289,42.563576,9.255154,14.510289,42.563576
3370.000000,0.250977,-0.772949,-0.297852,337.000000,-17.822266,20.320892,18.672943,337.000000,74.399963,24.749954,-48.300003,337.000000,0.141287,-0.979214,-0.145528,-11.510577,0.170446,9.337230,0.803120,0.265583,-0.533352,9.051262,14.563807,42.651527,9.051262,14.563807,42.651527
3380.000000,0.242187,-0.714844,-0.290527,338.000000,-19.714355,16.414642,14.949799,338.000000,74.399963,24.749954,-48.300003,338.000000,0.149596,-0.977233,-0.150452,-12.749108,-4.109246,4.788765,0.803246,0.266721,-0.532593,8.897796,14.640779,42.698631,8.897796,14.640779,42.698631
3390.000000,0.222656,-0.682129,-0.275879,339.000000,-19.836426,10.616302,11.837006,339.000000,75.449966,24.749954,-48.300003,339.000000,0.159196,-0.974412,-0.158674,-12.141059,-9.819400,1.192761,0.803783,0.267568,-0.531357,8.789412,14.727338,42.686489,8.789412,14.727338,42.686489
3400.000000,0.207031,-0.692383,-0.248047,340.000000,-20.507812,4.024506,8.113861,340.000000,74.849960,22.799957,-47.550003,340.000000,0.169514,-0.970894,-0.169203,-12.064275,-15.765923,-2.685830,0.804816,0.267716,-0.529717,8.732183,14.831488,42.607738,8.732183,14.831488,42.607738
3410.000000,0.168945,-0.701660,-0.220703,341.000000,-20.629883,-2.014160,4.512787,341.000000,74.699966,24.899963,-48.450012,341.000000,0.179813,-0.966915,-0.180950,-11.422986,-20.618177,-6.107732,0.806198,0.267070,-0.527937,8.724010,14.949027,42.468651,8.724010,14.949027,42.468651
3420.000000,0.171875,-0.711426,-0.183594,342.000000,-20.141602,-6.835938,0.606537,342.000000,74.699966,24.299957,-48.600006,342.000000,0.189409,-0.962784,-0.192798,-10.209230,-23.815956,-9.507524,0.807434,0.266306,-0.526432,8.766179,15.073909,42.282822,8.766179,15.073909,42.282822
3430.000000,0.140137,-0.743652,-0.158203,343.000000,-19.531250,-11.535645,-2.624512,343.000000,75.449966,24.299957,-48.600006,343.000000,0.197828,-0.958844,-0.203671,-8.943329,-26.535086,-11.936466,0.808369,0.265646,-0.525331,8.849729,15.203680,42.053120,8.849729,15.203680,42.053120
3440.000000,0.158203,-0.786133,-0.137207,344.000000,-20.202637,-14.526367,-4.394531,344.000000,73.499954,23.249954,-48.300003,344.000000,0.204701,-0.955450,-0.212633,-8.977304,-27.288036,-12.716247,0.809092,0.264797,-0.524646,8.957652,15.348524,41.797707,8.957652,15.348524,41.797707
3450.000000,0.172852,-0.846191,-0.094238,345.000000,-19.226074,-16.052246,-5.859375,345.000000,73.499954,23.849960,-48.450012,345.000000,0.210051,-0.952916,-0.218698,-7.398131,-26.472666,-13.089762,0.809496,0.263753,-0.524548,9.084538,15.488484,41.532177,9.084538,15.488484,41.532177
3460.000000,0.172852,-0.908203,-0.079102,346.000000,-16.479492,-15.747070,-6.408691,346.000000,73.949966,23.849960,-48.450012,346.000000,0.214034,-0.951540,-0.220820,-4.232171,-23.875105,-12.506313,0.809544,0.262764,-0.524970,9.219189,15.601516,41.275402,9.219189,15.601516,41.275402
3470.000000,0.175781,-1.007324,-0.057617,347.000000,-13.183594,-13.183594,-5.615234,347.000000,75.299957,23.999954,-49.950012,347.000000,0.216442,-0.951576,-0.218301,-0.793956,-19.248020,-10.640794,0.809340,0.261889,-0.525722,9.346120,15.677097,41.049793,9.346120,15.677097,41.049793
3480.000000,0.171875,-1.122558,-0.025391,348.000000,-8.117676,-10.864258,-4.394531,348.000000,75.299957,23.849960,-47.700012,348.000000,0.216838,-0.953213,-0.210632,4.048027,-15.175144,-8.485000,0.809151,0.261018,-0.526445,9.458577,15.692318,40.852230,9.458577,15.692318,40.852230
3490.000000,0.163574,-1.216797,-0.005371,349.000000,-2.136230,-10.803223,-2.868652,349.000000,74.999954,23.849960,-47.700012,349.000000,0.214744,-0.956482,-0.197551,9.338770,-13.551381,-6.188524,0.809352,0.260234,-0.526524,9.550597,15.632801,40.659115,9.550597,15.632801,40.659115
3500.000000,0.162109,-1.316894,0.016113,350.000000,4.390717,-13.793945,-1.037598,350.000000,75.599960,22.049957,-48.600006,350.000000,0.209912,-0.961101,-0.179506,14.666179,-14.933608,-3.772005,0.810001,0.259212,-0.526030,9.616161,15.488703,40.439430,9.616161,15.488703,40.439430
3510.000000,0.147461,-1.355957,0.005859,351.000000,10.433197,-19.165039,2.803802,351.000000,75.599960,22.649963,-48.750000,351.000000,0.202484,-0.966477,-0.157866,19.021795,-18.418810,0.376288,0.810906,0.257410,-0.525521,9.633016,15.262221,40.169720,9.633016,15.262221,40.169720
3520.000000,0.150879,-1.335937,-0.030273,352.000000,12.813568,-24.536133,6.710052,352.000000,74.549957,22.649963,-48.750000,352.000000,0.193095,-0.971843,-0.135036,19.432236,-21.538084,4.232485,0.811780,0.255117,-0.525289,9.599351,14.989614,39.850899,9.599351,14.989614,39.850899
3530.000000,0.159180,-1.262207,-0.052246,353.000000,14.339447,-29.724121,10.494232,353.000000,75.749954,22.649963,-47.700012,353.000000,0.182946,-0.976533,-0.113638,18.916988,-24.135609,7.628053,0.812552,0.252883,-0.525175,9.516740,14.682046,39.485775,9.516740,14.682046,39.485775
3540.000000,0.186035,-1.196289,-0.097168,354.000000,13.790131,-32.531738,13.179779,354.000000,75.749954,22.799957,-48.900009,354.000000,0.173463,-0.980194,-0.095554,16.389053,-24.144152,9.655201,0.813372,0.250861,-0.524876,9.397956,14.364618,39.098362,9.397956,14.364618,39.098362
3550.000000,0.200684,-1.103515,-0.142578,355.000000,11.653900,-33.996582,14.034271,355.000000,75.749954,22.799957,-48.900009,355.000000,0.165804,-0.982746,-0.081977,12.496172,-22.776312,9.722025,0.814106,0.249108,-0.524573,9.263990,14.058485,38.702366,9.263990,14.058485,38.702366
3560.000000,0.212402,-1.011719,-0.167969,356.000000,9.090424,-35.400391,13.179779,356.000000,76.499954,23.999954,-49.650009,356.000000,0.160598,-0.984284,-0.073432,8.478380,-21.380322,8.111712,0.814540,0.247857,-0.524492,9.134886,13.773561,38.299149,9.134886,13.773561,38.299149
3570.000000,0.228027,-0.961426,-0.195312,357.000000,7.015228,-36.743164,10.005951,357.000000,75.449966,24.299957,-49.650009,357.000000,0.158037,-0.984966,-0.069762,5.237222,-19.963850,4.389118,0.814523,0.247517,-0.524678,9.036437,13.510366,37.890396,9.036437,13.510366,37.890396
3580.000000,0.238769,-0.904785,-0.210937,358.000000,5.367279,-38.085938,6.343842,358.000000,75.449966,24.299957,-49.650009,358.000000,0.158096,-0.984903,-0.070505,2.660529,-18.592375,0.499387,0.813974,0.248190,-0.525212,8.975924,13.269451,37.477341,8.975924,13.269451,37.477341
3590.000000,0.244141,-0.878418,-0.237793,359.000000,3.902435,-39.123535,2.803802,359.000000,75.899963,24.299957,-49.650009,359.000000,0.160588,-0.984153,-0.075193,0.468013,-16.975338,-2.944745,0.813073,0.249539,-0.525968,8.954279,13.053200,37.063831,8.954279,13.053200,37.063831
3600.000000,0.220703,-0.858398,-0.243652,360.000000,1.155853,-39.001465,-0.183105,360.000000,77.399963,22.649963,-50.250000,360.000000,0.164995,-0.982764,-0.083379,-2.765894,-14.322370,-5.555821,0.812210,0.250754,-0.526724,8.967596,12.877798,36.661297,8.967596,12.877798,36.661297
3610.000000,0.224609,-0.861816,-0.243164,361.000000,-0.732422,-38.391113,-3.479004,361.000000,77.399963,23.099960,-50.250000,361.000000,0.170598,-0.980805,-0.094433,-4.893381,-11.373785,-8.219460,0.811709,0.251025,-0.527366,9.019681,12.737411,36.273788,9.019681,12.737411,36.273788
3620.000000,0.187500,-0.868652,-0.223144,362.000000,-1.831055,-37.475586,-5.371094,362.000000,77.399963,23.099960,-50.250000,362.000000,0.176664,-0.978390,-0.107434,-6.066162,-8.341008,-9.282764,0.811568,0.250441,-0.527860,9.096632,12.625935,35.903450,9.096632,12.625935,35.903450
3630.000000,0.170898,-0.905761,-0.210449,363.000000,-3.234863,-35.827637,-7.446289,363.000000,79.049957,24.149963,-50.850006,363.000000,0.182292,-0.975733,-0.121309,-7.408219,-4.833980,-10.395732,0.811668,0.249572,-0.528118,9.199320,12.546857,35.556759,9.199320,12.546857,35.556759
3640.000000,0.155273,-0.940429,-0.189453,364.000000,-3.601074,-35.156250,-8.178711,364.000000,77.849960,23.249954,-51.000000,364.000000,0.186714,-0.973095,-0.134998,-7.265372,-2.540990,-10.090366,0.811976,0.248656,-0.528077,9.312719,12.485587,35.223301,9.312719,12.485587,35.223301
3650.000000,0.145508,-1.004883,-0.175781,365.000000,-2.929688,-34.790039,-10.253906,365.000000,77.699966,23.999954,-50.400009,365.000000,0.189457,-0.970743,-0.147528,-6.815302,-0.725273,-11.057257,0.812384,0.247764,-0.527869,9.447822,12.437413,34.899704,9.447822,12.437413,34.899704
3660.000000,0.152344,-1.042969,-0.163574,366.000000,-2.014160,-35.217285,-11.047363,366.000000,77.699966,23.849960,-51.300003,366.000000,0.190278,-0.968916,-0.158101,-5.793918,0.179830,-10.674116,0.812623,0.247169,-0.527780,9.589339,12.393753,34.578354,9.589339,12.393753,34.578354
3670.000000,0.147461,-1.083496,-0.153809,367.000000,-0.366211,-34.362793,-10.681152,367.000000,76.649963,23.849960,-51.300003,367.000000,0.189278,-0.967755,-0.166206,-4.136889,2.233335,-9.173944,0.812437,0.246968,-0.528160,9.723557,12.344369,34.272594,9.723557,12.344369,34.272594
3680.000000,0.143555,-1.092773,-0.158691,368.000000,0.972748,-33.203125,-9.765625,368.000000,78.149963,24.149963,-51.900009,368.000000,0.186672,-0.967298,-0.171723,-2.900678,4.395718,-7.241213,0.811811,0.247047,-0.529085,9.843246,12.289283,33.985962,9.843246,12.289283,33.985962
3690.000000,0.152344,-1.104980,-0.149414,369.000000,3.353119,-31.982422,-9.338379,369.000000,78.149963,23.849960,-51.600006,369.000000,0.182804,-0.967474,-0.174864,-0.762458,6.416018,-5.912509,0.811000,0.247250,-0.530233,9.951895,12.215541,33.718998,9.951895,12.215541,33.718998
3700.000000,0.162109,-1.099121,-0.159180,370.000000,4.940033,-29.968262,-8.789062,370.000000,79.649963,23.849960,-51.600006,370.000000,0.178260,-0.968117,-0.175991,0.437867,8.999275,-4.557670,0.810363,0.247330,-0.531169,10.047650,12.128880,33.478687,10.047650,12.128880,33.478687
3710.000000,0.158691,-1.085937,-0.187500,371.000000,4.573822,-27.832031,-8.483887,371.000000,78.299957,23.249954,-53.250000,371.000000,0.173567,-0.968997,-0.175837,-0.333768,11.445652,-3.534334,0.809923,0.247045,-0.531971,10.132943,12.047181,33.265293,10.132943,12.047181,33.265293
3720.000000,0.161133,-1.055664,-0.176270,372.000000,4.878998,-25.329590,-8.911133,372.000000,79.499954,23.549957,-52.500000,372.000000,0.169046,-0.969911,-0.175202,-0.396324,13.991074,-3.285243,0.809455,0.246304,-0.533026,10.215349,11.963210,33.081963,10.215349,11.963210,33.081963
3730.000000,0.183105,-1.029297,-0.195312,373.000000,4.756927,-22.766113,-10.681152,373.000000,79.499954,24.899963,-53.700012,373.000000,0.165101,-0.970712,-0.174531,-0.860742,16.325588,-4.329339,0.808904,0.245518,-0.534225,10.308770,11.881182,32.928902,10.308770,11.881182,32.928902
3740.000000,0.182129,-1.032715,-0.195801,374.000000,5.001068,-19.897461,-12.268066,374.000000,78.599960,24.899963,-53.700012,374.000000,0.162138,-0.971280,-0.174143,-0.932125,18.691833,-5.093152,0.808096,0.245292,-0.535550,10.412365,11.797842,32.809010,10.412365,11.797842,32.809010
3750.000000,0.197266,-1.015625,-0.210449,375.000000,4.573822,-17.211914,-13.427734,375.000000,78.449966,23.999954,-53.550003,375.000000,0.160301,-0.971562,-0.174270,-1.636126,20.611113,-5.364098,0.806939,0.245578,-0.537160,10.523089,11.720444,32.720524,10.523089,11.720444,32.720524
3760.000000,0.174805,-1.030273,-0.203125,376.000000,4.390717,-13.977051,-14.465332,376.000000,78.449966,24.899963,-52.950012,376.000000,0.159433,-0.971581,-0.174963,-2.040557,22.814766,-5.474972,0.805683,0.246066,-0.538820,10.640768,11.647175,32.668415,10.640768,11.647175,32.668415
3770.000000,0.175781,-1.007812,-0.211914,377.000000,2.803802,-12.023926,-16.601562,377.000000,78.599960,24.899963,-52.950012,377.000000,0.159131,-0.971417,-0.176145,-3.745694,23.518805,-6.606620,0.804546,0.246853,-0.540157,10.776711,11.592307,32.639194,10.776711,11.592307,32.639194
3780.000000,0.184570,-0.998535,-0.225586,378.000000,2.376556,-9.521484,-17.395020,378.000000,79.049957,24.749954,-54.300003,378.000000,0.159222,-0.971085,-0.177885,-4.182427,24.599558,-6.332665,0.803533,0.247860,-0.541202,10.917879,11.544780,32.637547,10.917879,11.544780,32.637547
3790.000000,0.171387,-1.001465,-0.222168,379.000000,1.094818,-8.422852,-18.310547,379.000000,79.049957,26.249954,-55.350006,379.000000,0.159685,-0.970567,-0.180279,-5.383581,24.152660,-6.174839,0.802374,0.249012,-0.542391,11.065825,11.513605,32.649487,11.065825,11.513605,32.649487
3800.000000,0.167480,-1.010742,-0.229980,380.000000,0.362396,-7.873535,-19.409180,380.000000,78.299957,26.249954,-55.350006,380.000000,0.160254,-0.969925,-0.183203,-5.936820,23.127047,-6.182246,0.800770,0.250623,-0.544018,11.222356,11.493706,32.670280,11.222356,11.493706,32.670280
3810.000000,0.156250,-1.019531,-0.228516,381.000000,-1.220703,-8.422852,-20.019531,381.000000,77.399963,25.049957,-54.600006,381.000000,0.160620,-0.969238,-0.186489,-7.234296,21.050356,-5.698601,0.798793,0.252539,-0.546034,11.382288,11.493616,32.689747,11.382288,11.493616,32.689747
3820.000000,0.168457,-1.049804,-0.235352,382.000000,-1.098633,-8.850098,-20.568848,382.000000,77.399963,24.899963,-53.700012,382.000000,0.160647,-0.968559,-0.189963,-6.763050,19.187454,-5.176160,0.796863,0.254181,-0.548088,11.544565,11.496441,32.709049,11.544565,11.496441,32.709049
3830.000000,0.156738,-1.078613,-0.226562,383.000000,-1.342773,-8.850098,-20.874023,383.000000,78.749954,24.899963,-53.700012,383.000000,0.160311,-0.967943,-0.193359,-6.656612,17.819117,-4.445049,0.795436,0.255288,-0.549646,11.706319,11.505609,32.731407,11.706319,11.505609,32.731407
3840.000000,0.157227,-1.100097,-0.217773,384.000000,-1.525879,-8.544922,-20.080566,384.000000,77.849960,25.649963,-54.750000,384.000000,0.159511,-0.967484,-0.196294,-6.475688,16.791702,-2.708414,0.794541,0.256000,-0.550607,11.856227,11.519833,32.758671,11.856227,11.519833,32.758671
3850.000000,0.180176,-1.132324,-0.200684,385.000000,-1.464844,-7.507324,-19.592285,385.000000,77.849960,25.499954,-54.900009,385.000000,0.158367,-0.967259,-0.198320,-6.052145,16.488785,-1.401114,0.793772,0.256614,-0.551431,11.997074,11.535530,32.797642,11.997074,11.535530,32.797642
3860.000000,0.167480,-1.142578,-0.196777,386.000000,-0.610352,-6.591797,-19.226074,386.000000,78.299957,25.499954,-54.900009,386.000000,0.157146,-0.967295,-0.199114,-4.882767,16.032549,-0.316437,0.792971,0.257180,-0.552318,12.130100,11.543433,32.846928,12.130100,11.543433,32.846928
3870.000000,0.179687,-1.143066,-0.206543,387.000000,0.000000,-4.516602,-17.944336,387.000000,78.299957,26.999954,-53.850006,387.000000,0.155928,-0.967563,-0.198766,-4.027895,16.663794,1.552954,0.792307,0.257915,-0.552928,12.246449,11.544740,32.917332,12.246449,11.544740,32.917332
3880.000000,0.182617,-1.149902,-0.201660,388.000000,0.423431,-2.990723,-16.479492,388.000000,77.849960,26.249954,-54.600006,388.000000,0.154838,-0.967973,-0.197620,-3.409285,16.652952,3.432681,0.791810,0.259166,-0.553054,12.344782,11.540472,33.002602,12.344782,11.540472,33.002602
3890.000000,0.192871,-1.149414,-0.202637,389.000000,0.118256,-0.488281,-15.563965,389.000000,77.849960,26.249954,-54.300003,389.000000,0.154066,-0.968446,-0.195900,-3.527333,17.514231,4.614170,0.791379,0.260680,-0.552961,12.431197,11.537217,33.111816,12.431197,11.537217,33.111816
3900.000000,0.189453,-1.116211,-0.203125,390.000000,-0.854492,1.522064,-14.099121,390.000000,77.399963,26.249954,-54.300003,390.000000,0.153726,-0.968916,-0.193829,-4.260577,17.765387,6.203212,0.790972,0.262132,-0.552857,12.501050,11.541098,33.239563,12.501050,11.541098,33.239563
3910.000000,0.196289,-1.083984,-0.198730,391.000000,-1.647949,2.986908,-13.061523,391.000000,76.949966,26.699966,-54.750000,391.000000,0.153893,-0.969318,-0.191677,-4.743878,17.406260,7.225028,0.790477,0.263567,-0.552882,12.559457,11.550138,33.380257,12.559457,11.550138,33.380257
3920.000000,0.191406,-1.037109,-0.195801,392.000000,-2.807617,4.634857,-12.145996,392.000000,76.949966,27.149963,-54.000000,392.000000,0.154625,-0.969601,-0.189643,-5.518457,17.187042,8.015898,0.789791,0.265184,-0.553089,12.608515,11.567983,33.535767,12.608515,11.567983,33.535767
3930.000000,0.192871,-1.000976,-0.202148,393.000000,-4.211426,6.343842,-10.864258,393.000000,78.299957,27.149963,-54.000000,393.000000,0.155920,-0.969727,-0.187935,-6.439857,16.979900,9.059530,0.789140,0.267039,-0.553126,12.645499,11.597256,33.706261,12.645499,11.597256,33.706261
3940.000000,0.187012,-0.938965,-0.195801,394.000000,-7.507324,6.038666,-9.338379,394.000000,77.699966,27.749954,-54.600006,394.000000,0.157766,-0.969653,-0.186770,-7.492111,14.799577,10.213726,0.788691,0.269011,-0.552810,12.668931,11.640783,33.871231,12.668931,11.640783,33.871231
3950.000000,0.164551,-0.858398,-0.189941,395.000000,-8.666992,3.719330,-10.314941,395.000000,77.699966,27.149963,-54.000000,395.000000,0.160052,-0.969373,-0.186276,-9.535861,10.822078,8.837500,0.788341,0.270986,-0.552346,12.704148,11.710453,34.010921,12.704148,11.710453,34.010921
3960.000000,0.158203,-0.805176,-0.166992,396.000000,-9.643555,1.888275,-10.498047,396.000000,77.549957,25.949966,-55.200012,396.000000,0.162537,-0.968937,-0.186396,-9.618325,7.608930,8.303865,0.788048,0.272477,-0.552030,12.743398,11.788532,34.130562,12.743398,11.788532,34.130562
3970.000000,0.146484,-0.780273,-0.180176,397.000000,-10.253906,-0.244141,-11.657715,397.000000,77.549957,26.999954,-54.300003,397.000000,0.165043,-0.968393,-0.187017,-9.307136,4.351960,6.850101,0.787799,0.273155,-0.552049,12.796215,11.871859,34.227642,12.796215,11.871859,34.227642
3980.000000,0.138672,-0.742676,-0.177734,398.000000,-10.620117,-2.502441,-12.023926,398.000000,77.849960,26.999954,-54.300003,398.000000,0.167433,-0.967747,-0.188232,-8.753705,1.235052,6.253033,0.787625,0.273440,-0.552157,12.854440,11.958636,34.301289,12.854440,11.958636,34.301289
3990.000000,0.133789,-0.712890,-0.169434,399.000000,-11.535645,-5.187988,-12.512207,399.000000,76.649963,28.499954,-53.550003,399.000000,0.169622,-0.967001,-0.190099,-8.739696,-2.030190,5.566336,0.787500,0.274008,-0.552054,12.918952,12.054948,34.347694,12.918952,12.054948,34.347694
4000.000000,0.116211,-0.686523,-0.152832,400.000000,-11.230469,-7.507324,-13.183594,400.000000,76.649963,27.149963,-54.750000,400.000000,0.171523,-0.966210,-0.192401,-7.526196,-4.659839,4.741842,0.787208,0.275125,-0.551915,12.991099,12.149147,34.371323,12.991099,12.149147,34.371323
4010.000000,0.100098,-0.676758,-0.157715,401.000000,-11.352539,-8.666992,-13.488770,401.000000,76.499954,27.149963,-54.750000,401.000000,0.172861,-0.965469,-0.194909,-6.796114,-5.939023,4.319829,0.786632,0.276287,-0.552155,13.066485,12.245688,34.384579,13.066485,12.245688,34.384579
4020.000000,0.112793,-0.636719,-0.152832,402.000000,-11.474609,-9.582520,-14.404297,402.000000,76.949966,27.749954,-54.900009,402.000000,0.173533,-0.964798,-0.197612,-6.102425,-6.853473,3.333545,0.785844,0.277196,-0.552821,13.150248,12.344732,34.390549,13.150248,12.344732,34.390549
4030.000000,0.119629,-0.613281,-0.146484,403.000000,-11.474609,-9.460449,-15.686035,403.000000,77.249954,27.899963,-55.500000,403.000000,0.173930,-0.964124,-0.200533,-5.327891,-6.671768,2.068226,0.784925,0.278049,-0.553698,13.245492,12.445283,34.399860,13.245492,12.445283,34.399860
4040.000000,0.129395,-0.642090,-0.156738,404.000000,-11.474609,-9.277344,-17.761230,404.000000,77.249954,27.299957,-53.250000,404.000000,0.174484,-0.963375,-0.203626,-4.599079,-6.421918,0.143699,0.784144,0.278833,-0.554410,13.359962,12.547524,34.412861,13.359962,12.547524,34.412861
4050.000000,0.129395,-0.702637,-0.135742,405.000000,-9.704590,-8.483887,-19.836426,405.000000,75.749954,27.299957,-53.250000,405.000000,0.175255,-0.962607,-0.206577,-2.221754,-5.585217,-1.617740,0.783814,0.279491,-0.554545,13.493528,12.633920,34.434647,13.493528,12.633920,34.434647
4060.000000,0.139160,-0.790039,-0.127930,406.000000,-7.629395,-6.164551,-21.362305,406.000000,75.749954,26.549957,-54.300003,406.000000,0.176006,-0.962050,-0.208521,0.253750,-3.338982,-2.697856,0.783730,0.279933,-0.554441,13.640359,12.700599,34.479572,13.640359,12.700599,34.479572
4070.000000,0.131836,-0.882324,-0.128906,407.000000,-2.807617,-2.014160,-21.118164,407.000000,75.749954,28.799957,-54.600006,407.000000,0.176302,-0.961985,-0.208571,5.145042,0.480370,-1.982842,0.783446,0.280335,-0.554640,13.782216,12.718764,34.565479,13.782216,12.718764,34.565479
4080.000000,0.140137,-0.993164,-0.115723,408.000000,0.972748,2.437592,-20.629883,408.000000,75.599960,28.799957,-54.600006,408.000000,0.175603,-0.962646,-0.206099,8.604858,4.261434,-1.087597,0.782725,0.281342,-0.555147,13.915505,12.696544,34.695290,13.915505,12.696544,34.695290
4090.000000,0.154297,-1.125488,-0.104004,409.000000,5.611420,7.625580,-19.104004,409.000000,74.849960,27.899963,-55.500000,409.000000,0.173620,-0.964192,-0.200474,12.558998,8.409156,0.728147,0.781527,0.282923,-0.556031,14.028569,12.622532,34.876148,14.028569,12.622532,34.876148
4100.000000,0.173828,-1.281738,-0.115234,410.000000,11.226654,13.851166,-16.296387,410.000000,74.849960,27.149963,-54.750000,410.000000,0.170426,-0.966587,-0.191478,17.063608,13.164951,3.612795,0.780004,0.284302,-0.557464,14.107692,12.484160,35.117676,14.107692,12.484160,35.117676
4110.000000,0.192871,-1.417968,-0.122070,411.000000,16.536713,22.335052,-13.183594,411.000000,75.449966,27.149963,-54.750000,411.000000,0.166304,-0.969555,-0.179739,20.828823,19.626804,6.530441,0.778542,0.285015,-0.559141,14.149397,12.282467,35.440495,14.149397,12.282467,35.440495
4120.000000,0.245605,-1.582031,-0.132324,412.000000,22.884369,31.063080,-8.117676,412.000000,74.099960,28.499954,-54.300003,412.000000,0.161949,-0.972677,-0.166352,25.187704,25.698610,11.043588,0.777303,0.285400,-0.560666,14.135020,12.006653,35.844627,14.135020,12.006653,35.844627
4130.000000,0.288574,-1.709961,-0.135742,413.000000,27.767181,37.960052,-1.403809,413.000000,74.099960,27.149963,-53.700012,413.000000,0.158405,-0.975540,-0.152412,27.679609,29.405573,16.707611,0.776207,0.285947,-0.561904,14.050537,11.671996,36.309811,14.050537,11.671996,36.309811
4140.000000,0.311035,-1.757324,-0.159180,414.000000,28.072357,39.180756,7.564545,414.000000,74.999954,27.149963,-53.700012,414.000000,0.156374,-0.977856,-0.139089,25.476341,27.256639,23.983435,0.775464,0.286374,-0.562712,13.877106,11.325355,36.778015,13.877106,11.325355,36.778015
4150.000000,0.316894,-1.616211,-0.180176,415.000000,22.884369,38.143158,18.428802,415.000000,74.999954,27.749954,-53.250000,415.000000,0.156043,-0.979459,-0.127711,18.109686,23.027260,32.363525,0.775287,0.286500,-0.562892,13.600002,11.023158,37.225430,13.600002,11.023158,37.225430
4160.000000,0.315918,-1.421386,-0.196777,416.000000,13.729095,34.542084,26.668549,416.000000,74.999954,28.049957,-53.850006,416.000000,0.157465,-0.980292,-0.119300,7.506062,16.618389,37.398354,0.775522,0.286676,-0.562479,13.249160,10.806923,37.626194,13.249160,10.806923,37.626194
4170.000000,0.317871,-1.235840,-0.226074,417.000000,1.461029,30.574799,31.490326,417.000000,75.449966,28.049957,-53.850006,417.000000,0.160665,-0.980369,-0.114291,-5.201883,10.341333,38.594341,0.775917,0.287053,-0.561741,12.861712,10.709456,37.977242,12.861712,10.709456,37.977242
4180.000000,0.306641,-1.052734,-0.283691,418.000000,-10.437012,27.828217,33.199310,418.000000,75.449966,28.799957,-52.800003,418.000000,0.165573,-0.979702,-0.113002,-16.455742,5.726556,36.565285,0.776449,0.287704,-0.560672,12.470976,10.729142,38.291336,12.470976,10.729142,38.291336
4190.000000,0.284668,-0.921386,-0.322266,419.000000,-20.202637,22.762299,33.382416,419.000000,75.599960,29.549957,-54.900009,419.000000,0.171916,-0.978283,-0.115791,-24.650822,-0.736037,33.111004,0.776968,0.288879,-0.559347,12.093748,10.847549,38.546646,12.093748,10.847549,38.546646
4200.000000,0.260254,-0.833008,-0.321289,420.000000,-25.756836,16.658783,29.293060,420.000000,75.599960,27.899963,-54.450012,420.000000,0.179242,-0.976142,-0.122550,-28.027561,-7.638880,25.738510,0.777188,0.290302,-0.558304,11.772900,11.026131,38.735096,11.772900,11.026131,38.735096
4210.000000,0.212891,-0.799316,-0.302734,421.000000,-27.282715,7.137299,25.936127,421.000000,75.899963,27.899963,-54.450012,421.000000,0.186905,-0.973398,-0.132524,-27.158024,-17.195383,19.596188,0.777247,0.291220,-0.557744,11.500652,11.228037,38.825188,11.500652,11.228037,38.825188
4220.000000,0.196777,-0.794922,-0.289551,422.000000,-26.794434,-4.821777,21.968842,422.000000,76.799957,28.949966,-54.750000,422.000000,0.194186,-0.970228,-0.144742,-24.333162,-28.206038,13.318235,0.777363,0.291561,-0.557403,11.281703,11.435761,38.795223,11.281703,11.435761,38.795223
4230.000000,0.166992,-0.791504,-0.264160,423.000000,-26.428223,-16.052246,19.527435,423.000000,76.799957,27.299957,-52.800003,423.000000,0.200554,-0.966807,-0.158313,-21.773300,-37.476990,8.983303,0.777780,0.291538,-0.556834,11.099084,11.652034,38.654388,11.099084,11.652034,38.654388
4240.000000,0.125000,-0.767578,-0.244141,424.000000,-26.733398,-25.207520,16.963959,424.000000,75.449966,27.299957,-52.800003,424.000000,0.205613,-0.963320,-0.172448,-20.107786,-43.833061,4.866234,0.778841,0.290944,-0.555660,10.951826,11.885162,38.424217,10.951826,11.885162,38.424217
4250.000000,0.121094,-0.749512,-0.188965,425.000000,-27.099609,-36.376953,12.203217,425.000000,75.449966,26.549957,-53.850006,425.000000,0.209064,-0.959991,-0.186305,-18.332750,-51.409706,-1.020954,0.780296,0.289679,-0.554278,10.858916,12.132692,38.086319,10.858916,12.132692,38.086319
4260.000000,0.117676,-0.750488,-0.179199,426.000000,-27.038574,-38.452148,10.250092,426.000000,77.399963,26.549957,-53.850006,426.000000,0.210806,-0.957054,-0.199020,-16.347446,-49.448853,-3.718122,0.781719,0.287759,-0.553272,10.789725,12.389962,37.732231,10.789725,12.389962,37.732231
