icmT,accT,accX,accY,accZ,gyrT,gyrX,gyrY,gyrZ,magT,magX,magY,magZ,roll,pitch,yaw,accX_,accX_1,accX_2,accY_,accY_1,accY_2,accZ_,accZ_1,accZ_2,gyrX_,gyrX_1,gyrX_2,gyrY_,gyrY_1,gyrY_2,gyrZ_,gyrZ_1,gyrZ_2,magX_,magX_1,magX_2,magY_,magY_1,magY_2,magZ_,magZ_1,magZ_2,roll_,roll_s,roll_c,roll_1,roll_2,pitch_,pitch_s,pitch_c,pitch_1,pitch_2,yaw_,yaw_s,yaw_c,yaw_1,yaw_2
0.000000,0.000000,0.256836,-1.009277,0.153809,0.000000,0.371933,1.243591,-0.827789,0.000000,-7.314362,8.786575,-31.982727,0.000000,0.000000,0.000000,0.000000,0.000000,0.000000,0.000000,0.000000,0.000000,0.000000,0.000000,0.000000,0.000000,0.000000,0.000000,0.000000,0.000000,0.000000,0.000000,0.000000,0.000000,0.000000,0.000000,0.000000,0.000000,0.000000,0.000000,0.000000,0.000000,0.000000,0.000000,0.000000,0.000000,0.000000,0.000000,0.000000,0.000000,0.000000,0.000000,0.000000,0.000000,0.000000,0.000000,0.000000,0.000000
10.000000,10.000000,0.268555,-1.001953,0.161621,10.000000,0.188828,0.267029,-0.461578,10.000000,-7.314362,11.336578,-31.232727,0.000000,0.000000,0.000000,0.000000,0.000000,0.000000,0.000000,0.000000,0.000000,0.000000,0.000000,0.000000,0.000000,0.000000,0.000000,0.000000,0.000000,0.000000,0.000000,0.000000,0.000000,0.000000,0.000000,0.000000,0.000000,0.000000,0.000000,0.000000,0.000000,0.000000,0.000000,0.000000,0.000000,0.000000,0.000000,0.000000,0.000000,0.000000,0.000000,0.000000,0.000000,0.000000,0.000000,0.000000,0.000000
20.000000,20.000000,0.265137,-0.996094,0.161133,20.000000,0.799179,0.205994,-0.095367,20.000000,-7.164368,11.336578,-31.232727,-3.599065,3.592168,2.060426,0.000000,0.000000,0.000000,0.000000,0.000000,0.000000,0.000000,0.000000,0.000000,0.764449,0.764449,0.764449,0.197042,0.197042,0.197042,-0.091223,-0.091223,-0.091223,-0.210778,-0.210778,-0.210778,0.333526,0.333526,0.333526,-0.918876,-0.918876,-0.918876,-3.599065,-0.062774,0.998028,-3.599065,-3.599065,3.592168,0.062654,0.998035,3.592168,3.592168,2.060426,0.035953,0.999353,2.060426,2.060426
30.000000,30.000000,0.255859,-0.991211,0.164551,30.000000,0.432968,-0.522614,0.083923,30.000000,-6.564362,11.486588,-31.382721,-7.127906,7.116081,4.041887,0.000000,0.000000,0.000000,0.000000,0.000000,0.000000,0.000000,0.000000,0.000000,0.346267,-0.418182,-1.182631,-0.517400,-0.714442,-0.911484,0.088377,0.179600,0.270823,-0.206824,0.003954,0.214732,0.334358,0.000832,-0.332693,-0.919472,-0.000596,0.918280,-7.127906,-0.124085,0.992272,-3.528841,0.070224,7.116081,0.123880,0.992297,3.523913,-0.068254,4.041887,0.070486,0.997513,1.981461,-0.078964
40.000000,40.000000,0.265137,-1.000000,0.166992,40.000000,0.310898,-0.705719,0.267029,40.000000,-5.964371,11.636581,-32.282715,-10.587965,10.570713,5.958523,0.000000,0.000000,0.000000,0.000000,0.000000,0.000000,0.000000,0.000000,0.000000,0.195864,-0.150404,0.267778,-0.647346,-0.129946,0.584496,0.256022,0.167645,-0.011955,-0.200818,0.006006,0.002052,0.334881,0.000523,-0.000309,-0.920612,-0.001140,-0.000544,-10.587965,-0.183745,0.982974,-3.460059,0.068782,10.570713,0.183449,0.983029,3.454632,-0.069282,5.958523,0.103808,0.994597,1.916636,-0.064825
50.000000,50.000000,0.268066,-1.002929,0.161621,50.000000,0.066757,-0.461578,0.633240,50.000000,-7.764359,9.986588,-31.682724,-10.087302,10.172255,7.828468,0.251546,0.251546,0.251546,-0.955070,-0.955070,-0.955070,0.156733,0.156733,0.156733,-0.059258,-0.255121,-0.104718,-0.355119,0.292228,0.422174,0.583594,0.327572,0.159927,-0.197453,0.003365,-0.002641,0.332639,-0.002242,-0.002765,-0.922152,-0.001539,-0.000399,-10.087302,-0.175149,0.984542,0.500663,3.960721,10.172255,0.176608,0.984281,-0.398458,-3.853090,7.828468,0.136208,0.990680,1.869945,-0.046691
60.000000,60.000000,0.289062,-0.982422,0.155273,60.000000,0.127792,-0.156403,0.328064,60.000000,-8.064362,9.986588,-31.982727,-9.592275,9.781338,9.668079,0.252710,0.001164,-0.250382,-0.954794,0.000276,0.955346,0.156541,-0.000191,-0.156924,-0.000550,0.058708,0.313829,-0.028012,0.327106,0.034878,0.238899,-0.344695,-0.672267,-0.199432,-0.001979,-0.005344,0.327133,-0.005506,-0.003264,-0.923694,-0.001543,-0.000003,-9.592275,-0.166636,0.986019,0.495028,-0.005635,9.781338,0.169889,0.985463,-0.390917,0.007542,9.668079,0.167940,0.985797,1.839612,-0.030334
70.000000,70.000000,0.294434,-0.995117,0.146973,70.000000,0.249863,0.083923,0.022888,70.000000,-8.064362,10.886581,-31.832718,-9.101235,9.397941,11.480896,0.255178,0.002468,0.001304,-0.954277,0.000517,0.000241,0.155689,-0.000853,-0.000662,0.111551,0.112101,0.053393,0.209356,0.237368,-0.089738,-0.077392,-0.316291,0.028405,-0.204399,-0.004967,-0.002988,0.321262,-0.005871,-0.000364,-0.924668,-0.000974,0.000568,-9.101235,-0.158179,0.987410,0.491039,-0.003988,9.397941,0.163291,0.986578,-0.383397,0.007520,11.480896,0.199041,0.979991,1.812817,-0.026795
80.000000,80.000000,0.280273,-0.995117,0.161621,80.000000,0.494003,0.328064,-0.034332,80.000000,-7.464371,10.886581,-31.832718,-8.616150,9.021007,13.267044,0.257976,0.002797,0.000329,-0.953705,0.000572,0.000055,0.154581,-0.001107,-0.000255,0.330465,0.218914,0.106813,0.429400,0.220044,-0.017324,-0.129318,-0.051926,0.264365,-0.209236,-0.004838,0.000130,0.317399,-0.003863,0.002008,-0.924920,-0.000252,0.000722,-8.616150,-0.149814,0.988714,0.485085,-0.005954,9.021007,0.156797,0.987631,-0.376934,0.006463,13.267044,0.229490,0.973311,1.786148,-0.026669
90.000000,90.000000,0.279785,-0.999511,0.160644,90.000000,-0.173569,1.182556,-0.339508,90.000000,-7.764359,12.236588,-31.382721,-8.135151,8.659017,15.031316,0.260193,0.002217,-0.000580,-0.953234,0.000471,-0.000101,0.153768,-0.000813,0.000294,-0.342576,-0.673041,-0.891954,1.212940,0.783540,0.563496,-0.413520,-0.284202,-0.232276,-0.212866,-0.003629,0.001208,0.316303,-0.001096,0.002767,-0.924468,0.000453,0.000705,-8.135151,-0.141509,0.989937,0.480999,-0.004086,8.659017,0.150554,0.988602,-0.361990,0.014944,15.031316,0.259347,0.965784,1.764272,-0.021876
100.000000,100.000000,0.276367,-1.001465,0.159180,100.000000,0.249863,0.572205,-0.278473,100.000000,-7.764359,12.236588,-32.432724,-7.662565,8.300626,16.758350,0.261714,0.001521,-0.000696,-0.952896,0.000338,-0.000133,0.153279,-0.000488,0.000325,0.086495,0.429071,1.102111,0.524091,-0.688849,-1.472389,-0.321699,0.091821,0.376023,-0.215500,-0.002634,0.000995,0.318058,0.001754,0.002850,-0.923255,0.001213,0.000760,-7.662565,-0.133339,0.991071,0.472586,-0.008413,8.300626,0.144367,0.989524,-0.358391,0.003599,16.758350,0.288336,0.957529,1.727035,-0.037237
110.000000,110.000000,0.270996,-1.016601,0.162598,110.000000,0.494003,0.999451,-0.461578,110.000000,-6.864365,12.236588,-32.432724,-7.196592,7.947372,18.457481,0.262597,0.000883,-0.000638,-0.952708,0.000188,-0.000149,0.152940,-0.000339,0.000149,0.307258,0.220763,-0.208308,0.884337,0.360246,1.049095,-0.470001,-0.148301,-0.240122,-0.216833,-0.001333,0.001302,0.321529,0.003471,0.001717,-0.921739,0.001516,0.000303,-7.196592,-0.125274,0.992122,0.465973,-0.006613,7.947372,0.138263,0.990395,-0.353254,0.005137,18.457481,0.316601,0.948559,1.699131,-0.027904
120.000000,120.000000,0.259277,-0.986816,0.159180,120.000000,0.494003,0.144958,-0.034332,120.000000,-6.864365,10.586578,-31.532715,-6.743847,7.601429,20.114813,0.262838,0.000241,-0.000642,-0.952676,0.000032,-0.000157,0.152725,-0.000215,0.000124,0.274559,-0.032699,-0.253462,-0.015427,-0.899763,-1.260009,-0.020089,0.449911,0.598213,-0.216428,0.000405,0.001737,0.324836,0.003308,-0.000163,-0.920674,0.001065,-0.000450,-6.743847,-0.117431,0.993081,0.452745,-0.013227,7.601429,0.132281,0.991212,-0.345942,0.007311,20.114813,0.343902,0.939005,1.657331,-0.041800
130.000000,130.000000,0.268555,-0.987793,0.167480,130.000000,0.249863,0.205994,0.267029,130.000000,-6.864365,11.636581,-32.282715,-6.303356,7.264834,21.738939,0.262634,-0.000204,-0.000444,-0.952736,-0.000060,-0.000091,0.152704,-0.000021,0.000194,0.010071,-0.264488,-0.231788,0.037111,0.052538,0.952301,0.271230,0.291320,-0.158592,-0.214795,0.001633,0.001228,0.326900,0.002064,-0.001244,-0.920326,0.000348,-0.000717,-6.303356,-0.109793,0.993955,0.440491,-0.012254,7.264834,0.126456,0.991972,-0.336595,0.009347,21.738939,0.370378,0.928881,1.624126,-0.033205
140.000000,140.000000,0.269043,-1.001465,0.158203,140.000000,0.738144,-0.461578,0.328064,140.000000,-7.614365,11.636581,-32.282715,-5.872709,6.930030,23.323179,0.262265,-0.000369,-0.000165,-0.952814,-0.000078,-0.000019,0.152849,0.000145,0.000167,0.468626,0.458555,0.723043,-0.611902,-0.649014,-0.701551,0.306874,0.035643,-0.255676,-0.212860,0.001936,0.000303,0.328186,0.001286,-0.000777,-0.920318,0.000008,-0.000340,-5.872709,-0.102319,0.994752,0.430647,-0.009844,6.930030,0.120657,0.992694,-0.334804,0.001791,23.323179,0.395917,0.918286,1.584240,-0.039886
150.000000,150.000000,0.267578,-1.002441,0.171387,150.000000,0.860214,-0.461578,0.083923,150.000000,-7.164368,11.636581,-31.232727,-5.448815,6.600474,24.875555,0.261812,-0.000453,-0.000084,-0.952902,-0.000088,-0.000009,0.153079,0.000229,0.000084,0.536126,0.067500,-0.391056,-0.564860,0.047042,0.696056,0.046413,-0.260461,-0.296104,-0.211416,0.001443,-0.000492,0.329437,0.001252,-0.000035,-0.920203,0.000114,0.000106,-5.448815,-0.094956,0.995481,0.423893,-0.006753,6.600474,0.114945,0.993372,-0.329556,0.005248,24.875555,0.420649,0.907224,1.552376,-0.031864
160.000000,160.000000,0.267090,-1.005371,0.165527,160.000000,0.982285,-0.766754,0.144958,160.000000,-7.164368,10.736588,-30.932724,-5.034650,6.275927,26.394541,0.261256,-0.000556,-0.000103,-0.952999,-0.000097,-0.000010,0.153423,0.000345,0.000115,0.595861,0.059735,-0.007765,-0.811597,-0.246737,-0.293779,0.099836,0.053423,0.313884,-0.210593,0.000823,-0.000621,0.330547,0.001110,-0.000142,-0.919994,0.000209,0.000095,-5.034650,-0.087758,0.996142,0.414165,-0.009728,6.275927,0.109317,0.994007,-0.324547,0.005009,26.394541,0.444550,0.895754,1.518986,-0.033390
170.000000,170.000000,0.267090,-1.005371,0.168457,170.000000,0.432968,-0.461578,0.389099,170.000000,-6.264359,10.736588,-30.932724,-4.631910,5.962760,27.886864,0.260614,-0.000641,-0.000085,-0.953104,-0.000105,-0.000008,0.153861,0.000438,0.000093,0.006054,-0.589806,-0.649541,-0.450461,0.361136,0.607873,0.323488,0.223652,0.170229,-0.209752,0.000841,0.000018,0.330932,0.000385,-0.000725,-0.920048,-0.000054,-0.000263,-4.631910,-0.080754,0.996734,0.402740,-0.011426,5.962760,0.103882,0.994590,-0.313166,0.011381,27.886864,0.467727,0.883873,1.492323,-0.026663
180.000000,180.000000,0.270996,-0.991211,0.170410,180.000000,0.188828,-0.217438,0.328064,180.000000,-6.714371,11.336578,-31.832718,-4.237367,5.657663,29.351652,0.259978,-0.000637,0.000005,-0.953194,-0.000090,0.000015,0.154376,0.000515,0.000078,-0.241713,-0.247768,0.342039,-0.176711,0.273750,-0.087386,0.234988,-0.088500,-0.312152,-0.208176,0.001577,0.000735,0.330619,-0.000314,-0.000698,-0.920518,-0.000471,-0.000417,-4.237367,-0.073889,0.997266,0.394543,-0.008196,5.657663,0.098584,0.995129,-0.305097,0.008069,29.351652,0.490168,0.871628,1.464788,-0.027534
190.000000,190.000000,0.279297,-0.992187,0.157227,190.000000,0.371933,0.694275,0.267029,190.000000,-7.164368,10.286575,-31.682724,-3.850632,5.356254,30.795671,0.259527,-0.000451,0.000186,-0.953230,-0.000036,0.000054,0.154911,0.000535,0.000019,-0.058822,0.182891,0.430659,0.712993,0.889704,0.615954,0.153125,-0.081863,0.006637,-0.206285,0.001891,0.000314,0.329640,-0.000979,-0.000665,-0.921295,-0.000776,-0.000306,-3.850632,-0.067156,0.997743,0.386735,-0.007808,5.356254,0.093348,0.995634,-0.301409,0.003688,30.795671,0.511978,0.858999,1.444019,-0.020769
200.000000,200.000000,0.257812,-1.005859,0.169922,200.000000,-0.356674,1.304626,0.450134,200.000000,-7.164368,12.986588,-31.682724,-3.473778,5.067490,32.217068,0.259216,-0.000311,0.000139,-0.953242,-0.000012,0.000024,0.155360,0.000449,-0.000086,-0.763351,-0.704529,-0.887420,1.236091,0.523099,-0.366606,0.311174,0.158049,0.239913,-0.204958,0.001327,-0.000564,0.328751,-0.000889,0.000090,-0.921908,-0.000614,0.000163,-3.473778,-0.060592,0.998163,0.376854,-0.009881,5.067490,0.088329,0.996091,-0.288764,0.012645,32.217068,0.533128,0.846034,1.421396,-0.022623
210.000000,210.000000,0.281738,-1.001953,0.158691,210.000000,-0.295639,1.487732,0.267029,210.000000,-6.414368,12.986588,-31.682724,-3.103031,4.783488,33.612297,0.258897,-0.000319,-0.000007,-0.953270,-0.000028,-0.000017,0.155719,0.000359,-0.000091,-0.649766,0.113585,0.818114,1.301364,0.065272,-0.457826,0.104313,-0.206861,-0.364910,-0.203789,0.001170,-0.000157,0.330266,0.001515,0.002404,-0.921626,0.000282,0.000896,-3.103031,-0.054132,0.998534,0.370746,-0.006108,4.783488,0.083391,0.996517,-0.284002,0.004763,33.612297,0.553570,0.832802,1.395229,-0.026167
220.000000,220.000000,0.278320,-1.010254,0.154785,220.000000,-0.295639,0.755310,0.328064,220.000000,-8.214371,11.036575,-32.432724,-2.740509,4.504978,34.973270,0.258715,-0.000182,0.000136,-0.953293,-0.000023,0.000005,0.155883,0.000164,-0.000194,-0.601767,0.048000,-0.065585,0.480427,-0.820936,-0.886209,0.148177,0.043864,0.250725,-0.202872,0.000917,-0.000253,0.333469,0.003202,0.001687,-0.920675,0.000952,0.000669,-2.740509,-0.047813,0.998856,0.362522,-0.008224,4.504978,0.078546,0.996911,-0.278510,0.005492,34.973270,0.573194,0.819420,1.360973,-0.034256
230.000000,230.000000,0.279785,-0.999511,0.160644,230.000000,0.249863,0.938416,0.450134,230.000000,-8.214371,11.786575,-30.932724,-2.386379,4.226793,36.312084,0.258764,0.000049,0.000231,-0.953293,-0.000001,0.000022,0.155798,-0.000085,-0.000249,-0.033778,0.567988,0.519989,0.603216,0.122789,0.943725,0.246134,0.097957,0.054093,-0.203902,-0.001030,-0.001947,0.335763,0.002294,-0.000908,-0.919612,0.001062,0.000111,-2.386379,-0.041638,0.999133,0.354130,-0.008392,4.226793,0.073705,0.997280,-0.278185,0.000324,36.312084,0.592183,0.805803,1.338814,-0.022160
240.000000,240.000000,0.261719,-0.990722,0.154297,240.000000,0.616074,0.511169,0.144958,240.000000,-7.464371,11.786575,-30.932724,-2.036189,3.950853,37.625751,0.258900,0.000136,0.000087,-0.953294,-0.000001,-0.000000,0.155566,-0.000232,-0.000147,0.314546,0.348324,-0.219664,0.129458,-0.473758,-0.596547,-0.073846,-0.319981,-0.417938,-0.206955,-0.003053,-0.002023,0.337412,0.001649,-0.000645,-0.918326,0.001286,0.000224,-2.036189,-0.035531,0.999369,0.350190,-0.003940,3.950853,0.068901,0.997624,-0.275939,0.002246,37.625751,0.610501,0.792015,1.313667,-0.025146
250.000000,250.000000,0.282715,-1.002441,0.160156,250.000000,0.005722,0.022888,0.755310,250.000000,-7.464371,10.286575,-31.382721,-1.698835,3.686794,38.914646,0.259037,0.000137,0.000001,-0.953309,-0.000015,-0.000014,0.155245,-0.000322,-0.000090,-0.302059,-0.616605,-0.964929,-0.362891,-0.492349,-0.018591,0.509399,0.583246,0.903227,-0.210382,-0.003427,-0.000374,0.338375,0.000962,-0.000687,-0.917192,0.001134,-0.000153,-1.698835,-0.029646,0.999560,0.337354,-0.012836,3.686794,0.064302,0.997930,-0.264060,0.011880,38.914646,0.628162,0.778083,1.288895,-0.024773
260.000000,260.000000,0.287598,-0.991211,0.179687,260.000000,0.432968,-0.217438,-0.095367,260.000000,-7.464371,12.236588,-31.382721,-1.359525,3.424077,40.181141,0.259350,0.000313,0.000176,-0.953260,0.000049,0.000064,0.155024,-0.000220,0.000102,0.127411,0.429470,1.046075,-0.574827,-0.211936,0.280413,-0.356407,-0.865807,-1.449052,-0.213307,-0.002925,0.000502,0.338142,-0.000233,-0.001195,-0.916602,0.000590,-0.000544,-1.359525,-0.023726,0.999718,0.339309,0.001955,3.424077,0.059726,0.998215,-0.262717,0.001343,40.181141,0.645206,0.764008,1.266495,-0.022400
270.000000,270.000000,0.272461,-0.996582,0.169922,270.000000,0.066757,-0.095367,-0.461578,270.000000,-5.964371,12.236588,-31.382721,-1.022755,3.170042,41.427399,0.259894,0.000543,0.000230,-0.953094,0.000166,0.000117,0.155135,0.000111,0.000331,-0.239092,-0.366503,-0.795973,-0.419924,0.154903,0.366840,-0.683839,-0.327432,0.538374,-0.214684,-0.001377,0.001548,0.338383,0.000241,0.000474,-0.916192,0.000411,-0.000179,-1.022755,-0.017849,0.999841,0.336770,-0.002539,3.170042,0.055299,0.998470,-0.254035,0.008682,41.427399,0.661671,0.749795,1.246258,-0.020237
280.000000,280.000000,0.275391,-0.998047,0.164551,280.000000,0.310898,-0.034332,-0.034332,280.000000,-6.564362,11.786575,-32.732727,-0.696224,2.918270,42.650005,0.260448,0.000555,0.000011,-0.952889,0.000205,0.000039,0.155465,0.000330,0.000219,0.010298,0.249390,0.615893,-0.334987,0.084937,-0.069966,-0.221872,0.461968,0.789400,-0.213390,0.001294,0.002671,0.339547,0.001163,0.000922,-0.916064,0.000128,-0.000283,-0.696224,-0.012151,0.999926,0.326531,-0.010239,2.918270,0.050911,0.998703,-0.251772,0.002262,42.650005,0.677518,0.735506,1.222607,-0.023651
290.000000,290.000000,0.266602,-0.986328,0.165039,290.000000,0.188828,-0.095367,-0.217438,290.000000,-6.564362,9.836578,-31.232727,-0.373884,2.672275,43.845985,0.260887,0.000438,-0.000116,-0.952711,0.000178,-0.000027,0.155823,0.000358,0.000028,-0.111852,-0.122150,-0.371540,-0.372772,-0.037785,-0.122721,-0.382172,-0.160300,-0.622268,-0.210299,0.003091,0.001796,0.339521,-0.000026,-0.001189,-0.916788,-0.000724,-0.000852,-0.373884,-0.006525,0.999979,0.322340,-0.004191,2.672275,0.046623,0.998913,-0.245994,0.005778,43.845985,0.692722,0.721204,1.195980,-0.026627
300.000000,300.000000,0.257812,-0.995605,0.168945,300.000000,0.494003,0.205994,0.022888,300.000000,-5.964371,9.836578,-31.232727,-0.060085,2.427734,45.018555,0.261087,0.000201,-0.000237,-0.952592,0.000118,-0.000060,0.156210,0.000387,0.000029,0.185486,0.297338,0.419488,-0.059287,0.313484,0.351269,-0.122368,0.259804,0.420104,-0.206670,0.003629,0.000539,0.336772,-0.002748,-0.002723,-0.918625,-0.001837,-0.001113,-0.060085,-0.001049,0.999999,0.313799,-0.008541,2.427734,0.042359,0.999102,-0.244541,0.001453,45.018555,0.707336,0.706878,1.172569,-0.023411
310.000000,310.000000,0.267090,-0.998047,0.163086,310.000000,0.249863,0.022888,-0.461578,310.000000,-7.614365,10.286575,-31.682724,0.252060,2.189989,46.163696,0.260965,-0.000122,-0.000323,-0.952558,0.000034,-0.000084,0.156621,0.000410,0.000024,-0.068603,-0.254089,-0.551427,-0.235646,-0.176359,-0.489843,-0.577486,-0.455119,-0.714923,-0.203400,0.003270,-0.000359,0.331866,-0.004906,-0.002158,-0.921137,-0.002512,-0.000675,0.252060,0.004399,0.999990,0.312145,-0.001654,2.189989,0.038213,0.999270,-0.237745,0.006796,46.163696,0.721322,0.692600,1.145142,-0.027428
320.000000,320.000000,0.272949,-0.992187,0.162598,320.000000,0.432968,0.022888,-0.095367,320.000000,-7.614365,10.886581,-30.482727,0.554060,1.954805,47.286079,0.260690,-0.000275,-0.000153,-0.952577,-0.000019,-0.000053,0.156964,0.000344,-0.000066,0.107851,0.176453,0.430542,-0.220971,0.014675,0.191033,-0.178017,0.399469,0.854588,-0.202107,0.001293,-0.001977,0.326671,-0.005195,-0.000288,-0.923276,-0.002139,0.000373,0.554060,0.009670,0.999953,0.302000,-0.010145,1.954805,0.034111,0.999418,-0.235184,0.002561,47.286079,0.734750,0.678338,1.122383,-0.022758
330.000000,330.000000,0.280762,-0.989258,0.162109,330.000000,0.371933,0.633240,0.022888,330.000000,-7.164368,10.886581,-30.482727,0.848674,1.724650,48.394897,0.260526,-0.000165,0.000110,-0.952583,-0.000006,0.000012,0.157199,0.000235,-0.000109,0.035363,-0.072488,-0.248941,0.377118,0.598090,0.583415,-0.049019,0.128998,-0.270472,-0.203025,-0.000918,-0.002211,0.322868,-0.003803,0.001392,-0.924412,-0.001136,0.001003,0.848674,0.014812,0.999890,0.294614,-0.007385,1.724650,0.030096,0.999547,-0.230155,0.005028,48.394897,0.747739,0.663993,1.108818,-0.013565
340.000000,340.000000,0.269531,-1.006347,0.161133,340.000000,0.494003,0.572205,-0.095367,340.000000,-6.264359,9.536575,-31.382721,1.138545,1.497762,49.484383,0.260513,-0.000013,0.000152,-0.952568,0.000016,0.000022,0.157315,0.000116,-0.000118,0.144053,0.108690,0.181178,0.280721,-0.096398,-0.694488,-0.157038,-0.108018,-0.237016,-0.204343,-0.001318,-0.000400,0.319986,-0.002882,0.000921,-0.925123,-0.000711,0.000424,1.138545,0.019870,0.999803,0.289871,-0.004743,1.497762,0.026138,0.999658,-0.226888,0.003268,49.484383,0.760229,0.649655,1.089485,-0.019333
350.000000,350.000000,0.269043,-0.997070,0.163086,350.000000,0.249863,1.060486,-0.034332,350.000000,-7.164368,10.136581,-32.282715,1.421974,1.277809,50.559158,0.260474,-0.000039,-0.000026,-0.952579,-0.000011,-0.000027,0.157313,-0.000002,-0.000118,-0.107340,-0.251392,-0.360082,0.716903,0.436182,0.532580,-0.083779,0.073259,0.181277,-0.204825,-0.000482,0.000836,0.316380,-0.003606,-0.000724,-0.926256,-0.001133,-0.000421,1.421974,0.024816,0.999692,0.283429,-0.006443,1.277809,0.022300,0.999751,-0.219953,0.006935,50.559158,0.772281,0.635281,1.074776,-0.014709
360.000000,360.000000,0.275391,-1.005859,0.168457,360.000000,-0.478745,0.511169,0.083923,360.000000,-6.264359,10.286575,-32.732727,1.698436,1.069450,51.608047,0.260359,-0.000114,-0.000075,-0.952616,-0.000038,-0.000027,0.157273,-0.000040,-0.000038,-0.800365,-0.693025,-0.441633,0.120784,-0.596120,-1.032302,0.038301,0.122080,0.048822,-0.204369,0.000456,0.000938,0.312050,-0.004330,-0.000725,-0.927824,-0.001568,-0.000435,1.698436,0.029639,0.999561,0.276461,-0.006967,1.069450,0.018664,0.999826,-0.208359,0.011594,51.608047,0.783781,0.621038,1.048889,-0.025887
370.000000,370.000000,0.263184,-1.012695,0.169434,370.000000,0.249863,0.022888,0.328064,370.000000,-5.664368,11.336578,-31.532715,1.966734,0.858112,52.630306,0.260158,-0.000201,-0.000087,-0.952669,-0.000053,-0.000015,0.157287,0.000014,0.000054,-0.037554,0.762811,1.455837,-0.366725,-0.487509,0.108611,0.270271,0.231970,0.109890,-0.202352,0.002017,0.001562,0.308620,-0.003430,0.000900,-0.929412,-0.001588,-0.000020,1.966734,0.034319,0.999411,0.268299,-0.008163,0.858112,0.014976,0.999888,-0.211338,-0.002979,52.630306,0.794736,0.606956,1.022259,-0.026630
380.000000,380.000000,0.279785,-1.001953,0.162598,380.000000,0.310898,-0.034332,-0.034332,380.000000,-5.664368,9.536575,-31.982727,2.232867,0.650363,53.628555,0.259865,-0.000293,-0.000092,-0.952742,-0.000072,-0.000020,0.157333,0.000046,0.000032,0.021981,0.059534,-0.703277,-0.399070,-0.032345,0.455164,-0.098681,-0.368953,-0.600923,-0.198461,0.003891,0.001874,0.306627,-0.001993,0.001437,-0.930910,-0.001497,0.000091,2.232867,0.038961,0.999241,0.266133,-0.002165,0.650363,0.011351,0.999936,-0.207749,0.003589,53.628555,0.805189,0.593018,0.998249,-0.024010
390.000000,390.000000,0.281250,-0.993164,0.177246,390.000000,0.555038,-0.034332,0.022888,390.000000,-8.214371,9.536575,-31.982727,2.492934,0.444261,54.604206,0.259708,-0.000157,0.000137,-0.952767,-0.000026,0.000047,0.157435,0.000103,0.000057,0.251519,0.229538,0.170003,-0.372422,0.026647,0.058992,-0.034510,0.064171,0.433124,-0.194924,0.003537,-0.000354,0.304323,-0.002305,-0.000312,-0.932412,-0.001502,-0.000005,2.492934,0.043496,0.999054,0.260067,-0.006067,0.444261,0.007754,0.999970,-0.206102,0.001647,54.604206,0.815170,0.579221,0.975651,-0.022598
400.000000,400.000000,0.251953,-0.996582,0.156738,400.000000,-0.051498,-0.278473,0.144958,400.000000,-7.614365,11.036575,-30.932724,2.746529,0.248003,55.559074,0.259639,-0.000069,0.000087,-0.952755,0.000012,0.000038,0.157623,0.000188,0.000085,-0.353120,-0.604639,-0.834176,-0.580164,-0.207742,-0.234389,0.086367,0.120877,0.056706,-0.194533,0.000391,-0.003146,0.301787,-0.002536,-0.000231,-0.933318,-0.000906,0.000597,2.746529,0.047918,0.998851,0.253595,-0.006471,0.248003,0.004328,0.999991,-0.196258,0.009844,55.559074,0.824710,0.565556,0.954868,-0.020782
410.000000,410.000000,0.281738,-0.996582,0.166504,410.000000,0.494003,-0.217438,0.022888,410.000000,-7.614365,9.836578,-31.532715,2.996037,0.050169,56.500271,0.259457,-0.000181,-0.000112,-0.952782,-0.000027,-0.000039,0.157760,0.000137,-0.000050,0.196959,0.550079,1.154718,-0.476137,0.104027,0.311769,-0.036890,-0.123258,-0.244135,-0.197050,-0.002518,-0.002909,0.300477,-0.001310,0.001226,-0.933212,0.000105,0.001011,2.996037,0.052267,0.998633,0.249508,-0.004087,0.050169,0.000876,1.000000,-0.197834,-0.001577,56.500271,0.833888,0.551933,0.941196,-0.013672
420.000000,420.000000,0.264160,-0.992187,0.151367,420.000000,0.310898,-0.278473,0.022888,420.000000,-6.564362,9.836578,-31.532715,3.240354,-0.141875,57.427814,0.259291,-0.000167,0.000015,-0.952832,-0.000050,-0.000023,0.157735,-0.000025,-0.000163,0.002580,-0.194379,-0.744459,-0.495921,-0.019784,-0.123811,-0.032763,0.004127,0.127385,-0.200306,-0.003256,-0.000738,0.299602,-0.000875,0.000435,-0.932800,0.000412,0.000307,3.240354,0.056525,0.998401,0.244316,-0.005192,-0.141875,-0.002476,0.999997,-0.192044,0.005791,57.427814,0.842714,0.538362,0.927544,-0.013653
430.000000,430.000000,0.270996,-0.997558,0.152832,430.000000,0.616074,0.389099,-0.644684,430.000000,-7.764359,11.636581,-32.882721,3.486158,-0.332719,58.348557,0.259163,-0.000128,0.000039,-0.952914,-0.000082,-0.000032,0.157450,-0.000285,-0.000260,0.291780,0.289200,0.483579,0.184795,0.680716,0.700500,-0.667424,-0.634661,-0.638789,-0.203026,-0.002720,0.000535,0.299107,-0.000495,0.000380,-0.932371,0.000429,0.000017,3.486158,0.060807,0.998150,0.245804,0.001488,-0.332719,-0.005807,0.999983,-0.190844,0.001200,58.348557,0.851256,0.524750,0.920742,-0.006802
440.000000,440.000000,0.265137,-0.992676,0.161621,440.000000,-0.234604,0.450134,-0.156403,440.000000,-7.764359,11.036575,-31.682724,3.722038,-0.510801,59.256783,0.258999,-0.000164,-0.000036,-0.953041,-0.000127,-0.000045,0.156950,-0.000499,-0.000214,-0.550335,-0.842115,-1.131315,0.226757,0.041962,-0.638754,-0.139978,0.527446,1.162107,-0.205666,-0.002640,0.000081,0.300211,0.001104,0.001599,-0.931437,0.000934,0.000504,3.722038,0.064916,0.997891,0.235880,-0.009924,-0.510801,-0.008915,0.999960,-0.178082,0.012763,59.256783,0.859467,0.511191,0.908226,-0.012516
450.000000,450.000000,0.269531,-1.008301,0.168457,450.000000,0.310898,0.389099,-0.156403,450.000000,-8.214371,11.036575,-31.682724,3.952915,-0.690088,60.152721,0.258780,-0.000219,-0.000055,-0.953178,-0.000137,-0.000010,0.156478,-0.000472,0.000027,0.016735,0.567070,1.409185,0.147529,-0.079228,-0.121190,-0.123911,0.016067,-0.511379,-0.209053,-0.003387,-0.000747,0.302670,0.002459,0.001356,-0.929886,0.001551,0.000617,3.952915,0.068937,0.997621,0.230876,-0.005004,-0.690088,-0.012044,0.999927,-0.179287,-0.001205,60.152721,0.867355,0.497690,0.895939,-0.012287
460.000000,460.000000,0.274414,-1.002441,0.159180,460.000000,0.005722,0.205994,-0.461578,460.000000,-6.564362,10.286575,-31.382721,4.181856,-0.862347,61.035496,0.258539,-0.000241,-0.000022,-0.953303,-0.000125,0.000012,0.156113,-0.000365,0.000107,-0.278182,-0.294917,-0.861988,-0.042286,-0.189815,-0.110587,-0.400656,-0.276745,-0.292812,-0.212434,-0.003381,0.000005,0.305341,0.002672,0.000212,-0.928245,0.001641,0.000090,4.181856,0.072922,0.997338,0.228941,-0.001935,-0.862347,-0.015050,0.999887,-0.172259,0.007028,61.035496,0.874920,0.484268,0.882774,-0.013165
470.000000,470.000000,0.263672,-0.994140,0.167480,470.000000,-0.234604,0.328064,-0.583649,470.000000,-6.564362,11.636581,-30.782715,4.407139,-1.028442,61.906303,0.258322,-0.000217,0.000024,-0.953410,-0.000107,0.000018,0.155821,-0.000293,0.000073,-0.484942,-0.206759,0.088158,0.076111,0.118398,0.308212,-0.477208,-0.076552,0.200192,-0.214095,-0.001661,0.001720,0.308164,0.002823,0.000152,-0.926929,0.001316,-0.000326,4.407139,0.076843,0.997043,0.225283,-0.003658,-1.028442,-0.017949,0.999839,-0.166096,0.006163,61.906303,0.882179,0.470915,0.870808,-0.011967
480.000000,480.000000,0.265625,-1.003906,0.166016,480.000000,0.127792,0.511169,-0.461578,480.000000,-6.864365,11.636581,-30.782715,4.626384,-1.194553,62.763927,0.258048,-0.000273,-0.000056,-0.953511,-0.000101,0.000006,0.155654,-0.000166,0.000126,-0.095759,0.389182,0.595942,0.242537,0.166426,0.048029,-0.311917,0.165291,0.241843,-0.213870,0.000225,0.001886,0.312207,0.004042,0.001219,-0.925628,0.001302,-0.000014,4.626384,0.080658,0.996742,0.219244,-0.006039,-1.194553,-0.020847,0.999783,-0.166111,-0.000015,62.763927,0.889128,0.457658,0.857624,-0.013184
490.000000,490.000000,0.265137,-1.007324,0.175293,490.000000,-0.051498,0.022888,0.205994,490.000000,-8.364365,12.086578,-32.882721,4.834234,-1.355598,63.601933,0.257659,-0.000390,-0.000117,-0.953612,-0.000101,0.000001,0.155682,0.000028,0.000195,-0.257452,-0.161693,-0.550875,-0.248314,-0.490851,-0.657277,0.362294,0.674212,0.508921,-0.213380,0.000491,0.000266,0.317330,0.005124,0.001081,-0.923997,0.001630,0.000329,4.834234,0.084273,0.996443,0.207850,-0.011394,-1.355598,-0.023657,0.999720,-0.161045,0.005065,63.601933,0.895727,0.444605,0.838005,-0.019619
500.000000,500.000000,0.269043,-0.998047,0.172363,500.000000,0.310898,0.328064,-0.705719,500.000000,-8.664368,10.886581,-32.582718,5.046335,-1.517276,64.430252,0.257208,-0.000450,-0.000061,-0.953689,-0.000077,0.000023,0.155953,0.000270,0.000242,0.113723,0.371175,0.532868,0.062484,0.310797,0.801648,-0.532841,-0.895136,-1.569347,-0.214331,-0.000951,-0.001442,0.321748,0.004418,-0.000706,-0.922248,0.001749,0.000119,5.046335,0.087961,0.996124,0.212101,0.004250,-1.517276,-0.026478,0.999649,-0.161677,-0.000632,64.430252,0.902061,0.431610,0.828320,-0.009686
510.000000,510.000000,0.261719,-1.003906,0.165527,510.000000,-0.234604,0.022888,-0.278473,510.000000,-8.664368,9.836578,-32.582718,5.249470,-1.670869,65.244904,0.256744,-0.000464,-0.000014,-0.953743,-0.000054,0.000023,0.156385,0.000432,0.000162,-0.415534,-0.529257,-0.900432,-0.237208,-0.299692,-0.610489,-0.069084,0.463758,1.358894,-0.217236,-0.002906,-0.001955,0.323417,0.001669,-0.002749,-0.920983,0.001265,-0.000485,5.249470,0.091492,0.995806,0.203135,-0.008965,-1.670869,-0.029158,0.999575,-0.153593,0.008084,65.244904,0.908106,0.418741,0.814651,-0.013668
520.000000,520.000000,0.253418,-0.997070,0.177246,520.000000,0.371933,-0.217438,-0.156403,520.000000,-6.564362,9.836578,-32.582718,5.446670,-1.827926,66.046234,0.256160,-0.000584,-0.000120,-0.953815,-0.000072,-0.000018,0.156902,0.000517,0.000085,0.203753,0.619287,1.148545,-0.448490,-0.211283,0.088409,0.063591,0.132674,-0.331083,-0.220308,-0.003071,-0.000166,0.321605,-0.001812,-0.003480,-0.920888,0.000095,-0.001169,5.446670,0.094919,0.995485,0.197200,-0.005935,-1.827926,-0.031898,0.999491,-0.157057,-0.003464,66.046234,0.913873,0.405999,0.801331,-0.013321
530.000000,530.000000,0.267578,-1.008789,0.157227,530.000000,0.799179,-0.888824,-0.217438,530.000000,-7.314362,9.086578,-32.282715,5.639672,-1.986640,66.827209,0.255429,-0.000731,-0.000148,-0.953923,-0.000107,-0.000035,0.157442,0.000540,0.000023,0.598117,0.394364,-0.224924,-1.052442,-0.603952,-0.392669,0.009596,-0.053995,-0.186669,-0.221437,-0.001129,0.001942,0.316986,-0.004619,-0.002807,-0.922218,-0.001330,-0.001425,5.639672,0.098272,0.995160,0.193002,-0.004198,-1.986640,-0.034666,0.999399,-0.158714,-0.001657,66.827209,0.919322,0.393505,0.780975,-0.020355
540.000000,540.000000,0.264648,-0.998535,0.172363,540.000000,1.043320,0.022888,0.083923,540.000000,-7.314362,11.336578,-31.532715,5.825030,-2.145055,67.601593,0.254719,-0.000710,0.000022,-0.954041,-0.000118,-0.000011,0.157874,0.000432,-0.000108,0.781542,0.183425,-0.210939,-0.086764,0.965678,1.569630,0.306804,0.297208,0.351202,-0.221035,0.000402,0.001531,0.311582,-0.005405,-0.000786,-0.924154,-0.001936,-0.000607,5.825030,0.101491,0.994836,0.185358,-0.007645,-2.145055,-0.037430,0.999299,-0.158414,0.000299,67.601593,0.924557,0.381045,0.774384,-0.006592
550.000000,550.000000,0.286133,-0.990722,0.163574,550.000000,0.494003,0.389099,-0.400543,550.000000,-8.664368,11.336578,-31.532715,6.010925,-2.295323,68.364952,0.254285,-0.000433,0.000277,-0.954097,-0.000057,0.000062,0.158231,0.000356,-0.000076,0.187442,-0.594100,-0.777525,0.275340,0.362104,-0.603574,-0.174096,-0.480900,-0.778107,-0.220905,0.000130,-0.000272,0.308270,-0.003312,0.002093,-0.925295,-0.001141,0.000795,6.010925,0.104718,0.994502,0.185895,0.000538,-2.295323,-0.040050,0.999198,-0.150269,0.008146,68.364952,0.929551,0.368693,0.763359,-0.011024
560.000000,560.000000,0.276367,-1.003418,0.165527,560.000000,0.310898,0.022888,-0.034332,560.000000,-7.164368,12.086578,-30.782715,6.189561,-2.441141,69.112190,0.254313,0.000027,0.000461,-0.954042,0.000055,0.000112,0.158520,0.000289,-0.000067,-0.006557,-0.193999,0.400101,-0.094977,-0.370317,-0.732421,0.200260,0.374356,0.855256,-0.221683,-0.000778,-0.000908,0.308337,0.000067,0.003379,-0.925086,0.000208,0.001349,6.189561,0.107818,0.994171,0.178636,-0.007259,-2.441141,-0.042593,0.999093,-0.145818,0.004451,69.112190,0.934280,0.356539,0.747238,-0.016121
570.000000,570.000000,0.267578,-1.018066,0.155273,570.000000,0.005722,0.144958,-0.339508,570.000000,-7.164368,12.236588,-31.682724,6.367953,-2.581167,69.848732,0.254590,0.000278,0.000250,-0.953954,0.000088,0.000033,0.158605,0.000085,-0.000205,-0.300802,-0.294245,-0.100246,0.033613,0.128590,0.498907,-0.100180,-0.300440,-0.674796,-0.222079,-0.000395,0.000382,0.311601,0.003264,0.003197,-0.923897,0.001189,0.000981,6.367953,0.110913,0.993830,0.178391,-0.000245,-2.581167,-0.045035,0.998985,-0.140027,0.005791,69.848732,0.938786,0.344500,0.736542,-0.010696
580.000000,580.000000,0.253418,-1.008789,0.166016,580.000000,0.127792,0.572205,-0.278473,580.000000,-6.864365,12.236588,-31.682724,6.542307,-2.719409,70.576584,0.254704,0.000114,-0.000164,-0.953950,0.000005,-0.000084,0.158449,-0.000156,-0.000241,-0.160213,0.140589,0.434834,0.443057,0.409444,0.280854,-0.024401,0.075779,0.376220,-0.221029,0.001050,0.001445,0.317107,0.005505,0.002241,-0.922274,0.001623,0.000434,6.542307,0.113937,0.993488,0.174355,-0.004037,-2.719409,-0.047445,0.998874,-0.138241,0.001785,70.576584,0.943087,0.332547,0.727852,-0.008690
590.000000,590.000000,0.270019,-0.991699,0.157227,590.000000,0.555038,0.328064,-0.705719,590.000000,-5.964371,10.886581,-31.832718,6.717203,-2.858721,71.287323,0.254583,-0.000121,-0.000235,-0.954029,-0.000080,-0.000084,0.158162,-0.000287,-0.000131,0.260941,0.421155,0.280566,0.173803,-0.269254,-0.678697,-0.422034,-0.397634,-0.473413,-0.218221,0.002808,0.001759,0.322858,0.005751,0.000246,-0.920947,0.001328,-0.000295,6.717203,0.116969,0.993136,0.174895,0.000541,-2.858721,-0.049873,0.998756,-0.139312,-0.001071,71.287323,0.947139,0.320823,0.710739,-0.017113
600.000000,600.000000,0.265137,-1.003906,0.156738,600.000000,0.066757,0.694275,-0.217438,600.000000,-5.964371,11.486588,-31.382721,6.883628,-2.989973,71.984459,0.254444,-0.000139,-0.000018,-0.954133,-0.000103,-0.000024,0.157761,-0.000401,-0.000114,-0.230440,-0.491381,-0.912536,0.510613,0.336810,0.606064,0.091477,0.513511,0.911145,-0.213440,0.004781,0.001973,0.327317,0.004459,-0.001292,-0.920493,0.000454,-0.000874,6.883628,0.119853,0.992792,0.166425,-0.008470,-2.989973,-0.052161,0.998639,-0.131252,0.008060,71.984459,0.950973,0.309275,0.697136,-0.013603
610.000000,610.000000,0.265625,-1.003418,0.150879,610.000000,0.799179,0.389099,-0.400543,610.000000,-7.614365,11.486588,-31.382721,7.048363,-3.125052,72.660942,0.254339,-0.000105,0.000034,-0.954260,-0.000127,-0.000023,0.157161,-0.000599,-0.000198,0.488485,0.718924,1.210305,0.174647,-0.335967,-0.672777,-0.081229,-0.172706,-0.686217,-0.208271,0.005169,0.000387,0.330612,0.003295,-0.001164,-0.920499,-0.000006,-0.000460,7.048363,0.122707,0.992443,0.164735,-0.001690,-3.125052,-0.054515,0.998513,-0.135079,-0.003828,72.660942,0.954558,0.298026,0.676483,-0.020653
620.000000,620.000000,0.255371,-1.005371,0.165039,620.000000,0.371933,-0.400543,-0.583649,620.000000,-7.464371,10.586578,-32.282715,7.211323,-3.252358,73.314392,0.254140,-0.000199,-0.000094,-0.954433,-0.000173,-0.000046,0.156433,-0.000729,-0.000129,0.035164,-0.453320,-1.172244,-0.596828,-0.771475,-0.435508,-0.238943,-0.157715,0.014991,-0.204985,0.003286,-0.001883,0.332535,0.001922,-0.001373,-0.920544,-0.000045,-0.000039,7.211323,0.125529,0.992090,0.162960,-0.001776,-3.252358,-0.056734,0.998389,-0.127306,0.007774,73.314392,0.957895,0.287120,0.653450,-0.023033
630.000000,630.000000,0.255859,-1.002441,0.167480,630.000000,0.677109,0.083923,-0.400543,630.000000,-7.464371,11.786575,-31.382721,7.368707,-3.379344,73.959991,0.253730,-0.000410,-0.000210,-0.954643,-0.000210,-0.000037,0.155814,-0.000619,0.000110,0.320848,0.285683,0.739003,-0.081713,0.515115,1.286590,-0.032049,0.206894,0.364609,-0.203860,0.001125,-0.002162,0.332896,0.000361,-0.001561,-0.920663,-0.000119,-0.000074,7.368707,0.128254,0.991741,0.157384,-0.005576,-3.379344,-0.058946,0.998261,-0.126987,0.000319,73.959991,0.961069,0.276309,0.645599,-0.007851
640.000000,640.000000,0.263672,-1.008301,0.159180,640.000000,0.860214,0.205994,0.267029,640.000000,-6.714371,11.786575,-31.382721,7.515689,-3.505029,74.595528,0.253155,-0.000575,-0.000165,-0.954867,-0.000224,-0.000014,0.155375,-0.000439,0.000180,0.464263,0.143415,-0.142268,0.043266,0.124979,-0.390136,0.620789,0.652838,0.445943,-0.203753,0.000108,-0.001017,0.333204,0.000308,-0.000054,-0.920576,0.000088,0.000207,7.515689,0.130798,0.991409,0.146983,-0.010401,-3.505029,-0.061136,0.998129,-0.125685,0.001302,74.595528,0.964075,0.265631,0.635536,-0.010063
650.000000,650.000000,0.283691,-1.002929,0.160156,650.000000,1.104355,0.267029,0.205994,650.000000,-6.564362,11.786575,-31.682724,7.659791,-3.630093,75.220505,0.252721,-0.000434,0.000141,-0.955047,-0.000180,0.000045,0.154976,-0.000398,0.000041,0.652113,0.187850,0.044435,0.099072,0.055806,-0.069172,0.518829,-0.101959,-0.754797,-0.203400,0.000353,0.000245,0.334250,0.001046,0.000738,-0.920275,0.000301,0.000213,7.659791,0.133291,0.991077,0.144102,-0.002881,-3.630093,-0.063315,0.997994,-0.125064,0.000621,75.220505,0.966915,0.255100,0.624977,-0.010559
660.000000,660.000000,0.278809,-1.013672,0.158691,660.000000,1.836777,0.267029,0.328064,660.000000,-6.564362,10.886581,-31.532715,7.799768,-3.759317,75.833595,0.252700,-0.000021,0.000413,-0.955122,-0.000075,0.000104,0.154547,-0.000430,-0.000032,1.288590,0.636476,0.448626,0.091377,-0.007696,-0.063502,0.598727,0.079897,0.181857,-0.202314,0.001085,0.000732,0.335178,0.000928,-0.000118,-0.920177,0.000098,-0.000203,7.799768,0.135712,0.990748,0.139977,-0.004124,-3.759317,-0.065565,0.997848,-0.129224,-0.004160,75.833595,0.969589,0.244739,0.613091,-0.011887
670.000000,670.000000,0.280273,-1.001953,0.153320,670.000000,4.034042,0.694275,0.511169,670.000000,-7.314362,10.886581,-31.532715,7.935574,-3.906907,76.439003,0.253072,0.000372,0.000393,-0.955105,0.000017,0.000093,0.154045,-0.000502,-0.000072,3.267267,1.978677,1.342201,0.492669,0.401293,0.408988,0.727951,0.129224,0.049327,-0.201254,0.001061,-0.000025,0.334996,-0.000181,-0.001109,-0.920475,-0.000298,-0.000397,7.935574,0.138059,0.990424,0.135805,-0.004172,-3.906907,-0.068136,0.997676,-0.147589,-0.018365,76.439003,0.972121,0.234480,0.605408,-0.007683
680.000000,680.000000,0.281250,-1.005859,0.155273,680.000000,6.780624,0.267029,0.328064,680.000000,-5.964371,12.836578,-30.032715,8.071235,-4.077768,77.029068,0.253744,0.000672,0.000300,-0.955024,0.000081,0.000064,0.153440,-0.000605,-0.000104,5.590808,2.323541,0.344864,0.040622,-0.452047,-0.853340,0.493141,-0.234810,-0.364035,-0.200515,0.000739,-0.000322,0.334955,-0.000041,0.000140,-0.920651,-0.000176,0.000122,8.071235,0.140404,0.990094,0.135661,-0.000144,-4.077768,-0.071110,0.997468,-0.170861,-0.023272,77.029068,0.974484,0.224457,0.590065,-0.015343
690.000000,690.000000,0.286133,-1.017578,0.164551,690.000000,8.733749,0.633240,1.670837,690.000000,-5.964371,11.786575,-32.432724,8.192100,-4.263655,77.611305,0.254666,0.000922,0.000250,-0.954878,0.000146,0.000065,0.152820,-0.000620,-0.000015,6.936689,1.345881,-0.977660,0.385832,0.345210,0.797257,1.736001,1.242860,1.477670,-0.198894,0.001621,0.000883,0.336679,0.001724,0.001765,-0.920374,0.000277,0.000453,8.192100,0.142492,0.989796,0.120865,-0.014796,-4.263655,-0.074346,0.997232,-0.185887,-0.015025,77.611305,0.976715,0.214543,0.582237,-0.007828
700.000000,700.000000,0.266602,-1.012695,0.163574,700.000000,9.405136,0.816345,2.708435,700.000000,-6.264359,11.786575,-32.432724,8.301526,-4.451862,78.182411,0.255642,0.000976,0.000054,-0.954696,0.000182,0.000036,0.152328,-0.000492,0.000128,6.915888,-0.020801,-1.366682,0.525085,0.139253,-0.205957,2.574714,0.838713,-0.404147,-0.195890,0.003003,0.001382,0.338759,0.002080,0.000356,-0.920255,0.000119,-0.000158,8.301526,0.144383,0.989522,0.109426,-0.011438,-4.451862,-0.077621,0.996983,-0.188207,-0.002320,78.182411,0.978805,0.204797,0.571106,-0.011131
710.000000,710.000000,0.260254,-1.002929,0.166016,710.000000,9.954453,3.318787,4.417419,710.000000,-7.464371,10.886581,-31.232727,8.392862,-4.641380,78.765244,0.256358,0.000716,-0.000260,-0.954549,0.000146,-0.000036,0.152041,-0.000287,0.000205,6.753956,-0.161932,-0.141131,2.869059,2.343974,2.204721,3.974598,1.399884,0.561170,-0.193214,0.002676,-0.000327,0.339589,0.000830,-0.001250,-0.920515,-0.000260,-0.000379,8.392862,0.145960,0.989291,0.091336,-0.018090,-4.641380,-0.080919,0.996721,-0.189518,-0.001311,78.765244,0.980837,0.194829,0.582832,0.011726
720.000000,720.000000,0.252930,-1.004394,0.151855,720.000000,8.977890,3.990173,3.807068,720.000000,-7.464371,10.286575,-31.682724,8.488666,-4.817360,79.343834,0.256624,0.000266,-0.000450,-0.954503,0.000046,-0.000100,0.151882,-0.000159,0.000127,5.120701,-1.633255,-1.471323,3.251414,0.382355,-1.961619,3.021893,-0.952705,-2.352588,-0.192790,0.000425,-0.002251,0.338560,-0.001029,-0.001859,-0.920983,-0.000468,-0.000208,8.488666,0.147614,0.989045,0.095803,0.004467,-4.817360,-0.083980,0.996467,-0.175980,0.013538,79.343834,0.982755,0.184915,0.578590,-0.004242
730.000000,730.000000,0.291016,-0.998535,0.173828,730.000000,9.771347,3.623962,2.586365,730.000000,-8.214371,10.286575,-31.682724,8.594580,-4.997507,79.910843,0.256680,0.000056,-0.000210,-0.954500,0.000003,-0.000043,0.151805,-0.000077,0.000083,5.300063,0.179362,1.812616,2.596466,-0.654948,-1.037302,1.554945,-1.466948,-0.514244,-0.195051,-0.002261,-0.002686,0.335310,-0.003249,-0.002220,-0.921695,-0.000713,-0.000244,8.594580,0.149442,0.988771,0.105914,0.010111,-4.997507,-0.087112,0.996198,-0.180147,-0.004167,79.910843,0.984536,0.175180,0.567009,-0.011581
740.000000,740.000000,0.276855,-0.997558,0.163574,740.000000,9.466171,3.013611,2.037048,740.000000,-6.714371,9.536575,-30.332718,8.704110,-5.171227,80.465637,0.256968,0.000288,0.000231,-0.954402,0.000098,0.000095,0.151932,0.000127,0.000204,4.393258,-0.906806,-1.086167,1.753862,-0.842604,-0.187656,0.849057,-0.705888,0.761061,-0.198998,-0.003947,-0.001686,0.330341,-0.004969,-0.001719,-0.922645,-0.000950,-0.000237,8.704110,0.151332,0.988483,0.109530,0.003616,-5.171227,-0.090132,0.995930,-0.173720,0.006427,80.465637,0.986186,0.165639,0.554794,-0.012215
750.000000,750.000000,0.278320,-0.992676,0.166016,750.000000,7.329941,2.647400,2.098083,750.000000,-6.714371,9.536575,-31.682724,8.811534,-5.320946,81.009933,0.257523,0.000555,0.000268,-0.954202,0.000200,0.000103,0.152250,0.000318,0.000191,1.795468,-2.597789,-1.690984,1.209803,-0.544059,0.298545,0.783806,-0.065251,0.640637,-0.202653,-0.003655,0.000292,0.324176,-0.006165,-0.001196,-0.924035,-0.001390,-0.000440,8.811534,0.153185,0.988198,0.107424,-0.002107,-5.320946,-0.092735,0.995691,-0.149720,0.024000,81.009933,0.987715,0.156263,0.544296,-0.010498
760.000000,760.000000,0.288574,-0.987793,0.148926,760.000000,6.841660,2.586365,2.586365,760.000000,-7.464371,9.536575,-31.682724,8.912966,-5.463295,81.545258,0.258295,0.000772,0.000216,-0.953944,0.000258,0.000057,0.152558,0.000308,-0.000009,0.988104,-0.807365,1.790425,0.999345,-0.210458,0.333600,1.129821,0.346015,0.411265,-0.205291,-0.002638,0.001017,0.317090,-0.007086,-0.000921,-0.925910,-0.001875,-0.000484,8.912966,0.154934,0.987925,0.101432,-0.005992,-5.463295,-0.095208,0.995457,-0.142349,0.007370,81.545258,0.989132,0.147028,0.535324,-0.008972
770.000000,770.000000,0.288086,-0.989746,0.147461,770.000000,6.414413,2.708435,1.853943,770.000000,-6.714371,9.986588,-31.682724,9.020865,-5.598736,82.072792,0.259391,0.001096,0.000324,-0.953638,0.000307,0.000049,0.152616,0.000058,-0.000250,0.304034,-0.684070,0.123295,0.978153,-0.021192,0.189266,0.274491,-0.855330,-1.201344,-0.207315,-0.002024,0.000614,0.309934,-0.007156,-0.000070,-0.927880,-0.001970,-0.000095,9.020865,0.156794,0.987631,0.107900,0.006468,-5.598736,-0.097561,0.995230,-0.135441,0.006908,82.072792,0.990444,0.137915,0.527534,-0.007790
780.000000,780.000000,0.290527,-0.995117,0.148926,780.000000,6.902695,4.783630,0.083923,780.000000,-6.714371,9.986588,-32.432724,9.145610,-5.735990,82.610878,0.260780,0.001389,0.000294,-0.953303,0.000335,0.000028,0.152338,-0.000278,-0.000337,0.552719,0.248685,0.932755,2.823314,1.845162,1.866354,-1.501659,-1.776150,-0.920821,-0.208230,-0.000915,0.001109,0.303695,-0.006239,0.000917,-0.929736,-0.001856,0.000114,9.145610,0.158944,0.987288,0.124744,0.016845,-5.735990,-0.099945,0.994993,-0.137254,-0.001813,82.610878,0.991696,0.128607,0.538086,0.010551
790.000000,790.000000,0.300781,-0.996094,0.151367,790.000000,6.658554,6.126404,-0.461578,790.000000,-7.464371,9.986588,-32.432724,9.275160,-5.867566,83.151268,0.262427,0.001647,0.000258,-0.952934,0.000369,0.000035,0.151818,-0.000519,-0.000241,0.077578,-0.475141,-0.723826,3.800331,0.977017,-0.868145,-1.949815,-0.448156,1.327994,-0.208168,0.000062,0.000978,0.298555,-0.005140,0.001100,-0.931413,-0.001677,0.000179,9.275160,0.161176,0.986926,0.129550,0.004806,-5.867566,-0.102229,0.994761,-0.131576,0.005678,83.151268,0.992864,0.119248,0.540390,0.002304
800.000000,800.000000,0.294922,-0.984375,0.147461,800.000000,7.513046,6.492615,-2.048492,800.000000,-7.764359,11.486588,-32.432724,9.419946,-6.004176,83.685364,0.264346,0.001919,0.000272,-0.952510,0.000424,0.000055,0.151147,-0.000671,-0.000152,0.693432,0.615854,1.090995,3.745793,-0.054538,-1.031555,-3.348655,-1.398840,-0.950684,-0.208364,-0.000196,-0.000258,0.295176,-0.003380,0.001760,-0.932446,-0.001033,0.000644,9.419946,0.163669,0.986515,0.144786,0.015236,-6.004176,-0.104601,0.994514,-0.136610,-0.005034,83.685364,0.993933,0.109988,0.534096,-0.006294
810.000000,810.000000,0.312012,-0.985351,0.144531,810.000000,6.353378,7.408142,-3.269196,810.000000,-7.164368,10.286575,-32.732727,9.576429,-6.125830,84.220016,0.266565,0.002219,0.000300,-0.952020,0.000490,0.000067,0.150338,-0.000809,-0.000138,-0.672328,-1.365760,-1.981614,4.207182,0.461389,0.515927,-4.265609,-0.916954,0.481886,-0.209031,-0.000668,-0.000472,0.294101,-0.001075,0.002305,-0.932636,-0.000190,0.000843,9.576429,0.166363,0.986065,0.156484,0.011698,-6.125830,-0.106712,0.994290,-0.121654,0.014956,84.220016,0.994916,0.100709,0.534653,0.000557
820.000000,820.000000,0.310547,-0.977051,0.140625,820.000000,3.423691,8.872986,-4.367828,820.000000,-7.164368,9.536575,-32.432724,9.743636,-6.215296,84.760437,0.269169,0.002604,0.000385,-0.951441,0.000579,0.000088,0.149358,-0.000980,-0.000170,-3.612525,-2.940197,-1.574437,5.138889,0.931707,0.470318,-4.971716,-0.706107,0.210847,-0.209464,-0.000432,0.000235,0.293682,-0.000419,0.000656,-0.932671,-0.000035,0.000155,9.743636,0.169240,0.985575,0.167207,0.010723,-6.215296,-0.108265,0.994122,-0.089466,0.032188,84.760437,0.995822,0.091320,0.540421,0.005768
830.000000,830.000000,0.309570,-0.968261,0.122070,830.000000,0.066757,10.765076,-4.611969,830.000000,-6.714371,9.536575,-32.432724,9.913402,-6.268697,85.309410,0.272135,0.002966,0.000362,-0.950796,0.000645,0.000066,0.148085,-0.001273,-0.000293,-6.697762,-3.085238,-0.145041,6.380640,1.241750,0.310043,-4.781641,0.190075,0.896183,-0.209257,0.000207,0.000639,0.292359,-0.001323,-0.000904,-0.933133,-0.000462,-0.000427,9.913402,0.172160,0.985069,0.169765,0.002559,-6.268697,-0.109191,0.994021,-0.053401,0.036066,85.309410,0.996651,0.081775,0.548973,0.008553
840.000000,840.000000,0.292969,-0.967773,0.112305,840.000000,-2.614975,12.901306,-4.123688,840.000000,-6.564362,10.286575,-33.782715,10.078612,-6.292741,85.867416,0.275216,0.003081,0.000115,-0.950188,0.000609,-0.000036,0.146286,-0.001799,-0.000526,-8.849512,-2.151750,0.933488,7.726231,1.345592,0.103841,-3.889065,0.892576,0.702500,-0.207957,0.001299,0.001092,0.290440,-0.001919,-0.000596,-0.934023,-0.000889,-0.000427,10.078612,0.174999,0.984569,0.165211,-0.004555,-6.292741,-0.109608,0.993975,-0.024045,0.029356,85.867416,0.997400,0.072065,0.558006,0.009033
850.000000,850.000000,0.290527,-0.976074,0.108398,850.000000,-4.446030,15.037537,-4.062653,850.000000,-6.564362,10.586578,-31.232727,10.243224,-6.295559,86.433067,0.278055,0.002839,-0.000242,-0.949734,0.000453,-0.000155,0.143840,-0.002446,-0.000647,-9.971160,-1.121648,1.030102,8.928219,1.201988,-0.143604,-3.466363,0.422702,-0.469874,-0.205574,0.002384,0.001084,0.289256,-0.001185,0.000734,-0.934917,-0.000895,-0.000006,10.243224,0.177827,0.984062,0.164612,-0.000599,-6.295559,-0.109657,0.993969,-0.002818,0.021227,86.433067,0.998063,0.062215,0.565651,0.007645
860.000000,860.000000,0.269531,-0.989258,0.134766,860.000000,-3.652573,15.281677,-5.039215,860.000000,-5.214371,10.586578,-31.232727,10.416646,-6.302802,86.987259,0.280268,0.002213,-0.000627,-0.949508,0.000227,-0.000227,0.141015,-0.002825,-0.000379,-8.449304,1.521856,2.643504,8.184405,-0.743814,-1.945801,-4.059009,-0.592646,-1.015348,-0.202227,0.003347,0.000963,0.289986,0.000731,0.001915,-0.935421,-0.000503,0.000392,10.416646,0.180805,0.983519,0.173422,0.008810,-6.302802,-0.109783,0.993956,-0.007243,-0.004425,86.987259,0.998618,0.052558,0.554192,-0.011459
870.000000,870.000000,0.265137,-1.001953,0.116211,870.000000,-3.469467,15.586853,-4.611969,870.000000,-6.714371,10.136581,-31.532715,10.583747,-6.308328,87.530342,0.281487,0.001220,-0.000993,-0.949565,-0.000057,-0.000283,0.138174,-0.002841,-0.000016,-7.608742,0.840562,-0.681294,7.531290,-0.653115,0.090698,-3.243124,0.815885,1.408531,-0.198097,0.004130,0.000784,0.292200,0.002213,0.001483,-0.935616,-0.000195,0.000308,10.583747,0.183673,0.982987,0.167101,-0.006321,-6.308328,-0.109879,0.993945,-0.005526,0.001717,87.530342,0.999071,0.043090,0.543083,-0.011108
880.000000,880.000000,0.264160,-0.997070,0.120117,880.000000,-5.483627,15.159607,-4.550934,880.000000,-6.714371,12.236588,-31.682724,10.746940,-6.290586,88.056396,0.281625,0.000138,-0.001082,-0.949933,-0.000368,-0.000311,0.135334,-0.002839,0.000002,-8.912676,-1.303934,-2.144496,6.204653,-1.326637,-0.673522,-2.834651,0.408473,-0.407412,-0.194567,0.003529,-0.000601,0.295663,0.003463,0.001250,-0.935268,0.000347,0.000543,10.746940,0.186472,0.982460,0.163193,-0.003908,-6.290586,-0.109571,0.993979,0.017742,0.023268,88.056396,0.999425,0.033916,0.526054,-0.017029
890.000000,890.000000,0.277344,-0.980957,0.105469,890.000000,-7.925034,14.244080,-4.245758,890.000000,-5.514359,12.236588,-31.682724,10.902998,-6.245714,88.562454,0.281008,-0.000618,-0.000756,-0.950528,-0.000595,-0.000227,0.132408,-0.002926,-0.000086,-10.480744,-1.568069,-0.264134,4.500304,-1.704349,-0.377712,-2.216666,0.617986,0.209513,-0.191677,0.002890,-0.000639,0.301547,0.005884,0.002421,-0.933986,0.001283,0.000935,10.902998,0.189147,0.981949,0.156058,-0.007134,-6.245714,-0.108793,0.994064,0.044872,0.027130,88.562454,0.999685,0.025087,0.506058,-0.019997
900.000000,900.000000,0.279785,-0.964355,0.090332,900.000000,-10.366440,12.596130,-5.283356,900.000000,-5.514359,12.386581,-33.332718,11.064916,-6.173965,89.041222,0.280140,-0.000868,-0.000250,-0.951218,-0.000691,-0.000096,0.129249,-0.003159,-0.000233,-11.875885,-1.395141,0.172928,2.223267,-2.277037,-0.572688,-2.927269,-0.710603,-1.328588,-0.187812,0.003866,0.000975,0.309479,0.007932,0.002048,-0.932175,0.001811,0.000528,11.064916,0.191921,0.981410,0.161918,0.005859,-6.173965,-0.107548,0.994200,0.071749,0.026877,89.041222,0.999860,0.016733,0.478767,-0.027290
910.000000,910.000000,0.299805,-0.981445,0.081543,910.000000,-13.845444,11.985779,-5.832672,910.000000,-5.514359,10.136581,-32.582718,11.227989,-6.065162,89.501518,0.279450,-0.000690,0.000178,-0.951906,-0.000688,0.000002,0.125626,-0.003623,-0.000464,-14.100036,-2.224151,-0.829010,1.123939,-1.099328,1.177709,-3.099329,-0.172061,0.538542,-0.182767,0.005045,0.001179,0.316627,0.007147,-0.000785,-0.930776,0.001399,-0.000412,11.227989,0.194714,0.980860,0.163074,0.001156,-6.065162,-0.105659,0.994402,0.108803,0.037055,89.501518,0.999962,0.008700,0.460297,-0.018471
920.000000,920.000000,0.292480,-0.997558,0.089355,920.000000,-15.432358,12.962341,-7.114410,920.000000,-6.264359,10.136581,-32.582718,11.399768,-5.938037,89.958260,0.279100,-0.000350,0.000340,-0.952541,-0.000634,0.000054,0.121530,-0.004096,-0.000473,-14.271933,-0.171897,2.052254,1.631786,0.507846,1.607174,-3.945642,-0.846313,-0.674252,-0.177948,0.004819,-0.000225,0.320339,0.003713,-0.003434,-0.930439,0.000337,-0.001062,11.399768,0.197653,0.980272,0.171779,0.008705,-5.938037,-0.103453,0.994634,0.127124,0.018321,89.958260,1.000000,0.000729,0.456741,-0.003555
930.000000,930.000000,0.313965,-0.988769,0.083496,930.000000,-17.263412,14.366150,-7.846832,930.000000,-7.164368,10.586578,-32.282715,11.575143,-5.790259,90.416878,0.279126,0.000026,0.000376,-0.953080,-0.000539,0.000095,0.117162,-0.004368,-0.000271,-14.608816,-0.336884,-0.164987,2.498966,0.867180,0.359334,-4.179644,-0.234001,0.612312,-0.175181,0.002766,-0.002053,0.320730,0.000390,-0.003323,-0.930830,-0.000391,-0.000727,11.575143,0.200653,0.979662,0.175375,0.003596,-5.790259,-0.100887,0.994898,0.147778,0.020654,90.416878,0.999974,-0.007276,0.458618,0.001877
940.000000,940.000000,0.332519,-1.003906,0.094727,940.000000,-19.216537,16.563416,-8.579254,940.000000,-7.164368,11.036575,-32.732727,11.754811,-5.621028,90.888008,0.279788,0.000662,0.000636,-0.953417,-0.000337,0.000202,0.112757,-0.004406,-0.000038,-14.978618,-0.369802,-0.032918,4.041948,1.542982,0.675802,-4.377955,-0.198312,0.035690,-0.175353,-0.000172,-0.002938,0.319619,-0.001111,-0.001501,-0.931179,-0.000350,0.000041,11.754811,0.203724,0.979028,0.179668,0.004293,-5.621028,-0.097948,0.995192,0.169231,0.021453,90.888008,0.999880,-0.015498,0.471130,0.012512
950.000000,950.000000,0.303711,-1.022949,0.087402,950.000000,-21.108627,19.798279,-9.189606,950.000000,-5.964371,11.036575,-32.732727,11.938209,-5.431569,91.383278,0.281037,0.001250,0.000588,-0.953544,-0.000127,0.000211,0.108496,-0.004260,0.000145,-15.201994,-0.223376,0.146425,6.430973,2.389025,0.846043,-4.426097,-0.048141,0.150170,-0.177116,-0.001763,-0.001591,0.318248,-0.001371,-0.000260,-0.931315,-0.000136,0.000214,11.938209,0.206857,0.978371,0.183397,0.003729,-5.431569,-0.094657,0.995510,0.189459,0.020227,91.383278,0.999709,-0.024140,0.495270,0.024139
960.000000,960.000000,0.291992,-1.021484,0.082031,960.000000,-22.512436,24.192810,-9.799957,960.000000,-6.714371,11.786575,-32.732727,12.125212,-5.227262,91.913498,0.282237,0.001199,-0.000050,-0.953648,-0.000104,0.000023,0.104396,-0.004100,0.000160,-14.881871,0.320123,0.543499,9.701844,3.270872,0.881847,-4.453420,-0.027323,0.020818,-0.178744,-0.001627,0.000136,0.317423,-0.000825,0.000545,-0.931286,0.000029,0.000165,12.125212,0.210049,0.977691,0.187003,0.003606,-5.227262,-0.091106,0.995841,0.204308,0.014849,91.913498,0.999442,-0.033391,0.530220,0.034950
970.000000,970.000000,0.296875,-1.012207,0.071777,970.000000,-24.343491,25.291443,-11.264801,970.000000,-6.714371,9.986588,-32.732727,12.323628,-5.004264,92.445641,0.283019,0.000783,-0.000416,-0.953850,-0.000202,-0.000099,0.100350,-0.004046,0.000055,-14.941410,-0.059539,-0.379662,9.505281,-0.196563,-3.467434,-5.278950,-0.825530,-0.798207,-0.180328,-0.001584,0.000043,0.316847,-0.000575,0.000250,-0.931177,0.000109,0.000080,12.323628,0.213433,0.976958,0.198417,0.011414,-5.004264,-0.087230,0.996188,0.222997,0.018690,92.445641,0.999089,-0.042672,0.532143,0.001923
980.000000,980.000000,0.291016,-1.029297,0.083984,980.000000,-24.892807,26.145935,-11.631012,980.000000,-5.814362,9.986588,-32.732727,12.522005,-4.775592,92.976540,0.283413,0.000394,-0.000389,-0.954142,-0.000292,-0.000090,0.096382,-0.003968,0.000078,-13.713389,1.228021,1.287560,9.055983,-0.449299,-0.252736,-4.963453,0.315497,1.141027,-0.181765,-0.001438,0.000146,0.315009,-0.001839,-0.001263,-0.931521,-0.000344,-0.000454,12.522005,0.216815,0.976213,0.198377,-0.000040,-4.775592,-0.083253,0.996528,0.228673,0.005675,92.976540,0.998651,-0.051927,0.530899,-0.001244
990.000000,990.000000,0.289551,-1.029297,0.067383,990.000000,-27.334213,26.084900,-13.034821,990.000000,-5.364365,10.136581,-30.482727,12.730020,-4.522990,93.495277,0.283390,-0.000023,-0.000417,-0.954526,-0.000384,-0.000092,0.092571,-0.003811,0.000157,-14.347826,-0.634437,-1.862457,7.734923,-1.321060,-0.871761,-5.648532,-0.685079,-1.000576,-0.182018,-0.000253,0.001185,0.312104,-0.002905,-0.001066,-0.932449,-0.000928,-0.000584,12.730020,0.220357,0.975419,0.208014,0.009638,-4.522990,-0.078859,0.996886,0.252602,0.023930,93.495277,0.998140,-0.060966,0.518738,-0.012161
1000.000000,1000.000000,0.291992,-1.032715,0.075195,1000.000000,-28.799057,25.169373,-14.438629,1000.000000,-5.364365,11.486588,-30.932724,12.947010,-4.256659,93.992363,0.282968,-0.000422,-0.000399,-0.955001,-0.000475,-0.000091,0.088895,-0.003676,0.000135,-13.939979,0.407847,1.042284,5.679598,-2.055325,-0.734265,-6.254018,-0.605486,0.079593,-0.180828,0.001191,0.001444,0.310326,-0.001778,0.001127,-0.933273,-0.000825,0.000103,12.947010,0.224050,0.974578,0.216990,0.008976,-4.256659,-0.074224,0.997242,0.266331,0.013729,93.992363,0.997573,-0.069624,0.497086,-0.021652
1010.000000,1010.000000,0.298340,-1.021484,0.059570,1010.000000,-30.569077,24.681091,-15.598297,1010.000000,-6.264359,11.486588,-30.932724,13.170160,-3.974000,94.472656,0.282335,-0.000633,-0.000211,-0.955514,-0.000513,-0.000038,0.085321,-0.003574,0.000102,-13.806046,0.133933,-0.273914,4.186243,-1.493355,0.561969,-6.550859,-0.296842,0.308644,-0.179079,0.001749,0.000558,0.311115,0.000789,0.002567,-0.933348,-0.000075,0.000750,13.170160,0.227844,0.973698,0.223150,0.006160,-3.974000,-0.069304,0.997596,0.282658,0.016327,94.472656,0.996955,-0.077983,0.480293,-0.016792
1020.000000,1020.000000,0.301758,-1.017578,0.064941,1020.000000,-32.949448,23.582458,-16.208649,1020.000000,-4.614365,10.136581,-30.782715,13.394014,-3.669450,94.930740,0.281739,-0.000596,0.000036,-0.955996,-0.000482,0.000031,0.081818,-0.003503,0.000071,-14.215158,-0.409113,-0.543046,2.220213,-1.966030,-0.472675,-6.272263,0.278596,0.575438,-0.177149,0.001930,0.000181,0.313463,0.002348,0.001559,-0.932931,0.000417,0.000492,13.394014,0.231646,0.972800,0.223854,0.000704,-3.669450,-0.064000,0.997950,0.304551,0.021893,94.930740,0.996299,-0.085951,0.458084,-0.022209
1030.000000,1030.000000,0.305176,-1.017090,0.069824,1030.000000,-34.841537,23.399353,-17.185211,1030.000000,-4.614365,11.036575,-32.432724,13.622395,-3.348447,95.374138,0.281341,-0.000398,0.000199,-0.956392,-0.000396,0.000086,0.078490,-0.003329,0.000174,-14.068709,0.146449,0.555562,1.288695,-0.931518,1.034512,-6.343950,-0.071687,-0.350283,-0.173803,0.003346,0.001416,0.315540,0.002077,-0.000271,-0.932860,0.000071,-0.000347,13.622395,0.235522,0.971869,0.228380,0.004526,-3.348447,-0.058408,0.998293,0.321003,0.016452,95.374138,0.995604,-0.093659,0.443398,-0.014687
1040.000000,1040.000000,0.350586,-1.012695,0.044434,1040.000000,-36.550522,24.070740,-18.833160,1040.000000,-4.764359,11.036575,-32.432724,13.862473,-3.013323,95.809067,0.281507,0.000165,0.000563,-0.956599,-0.000206,0.000190,0.075319,-0.003170,0.000158,-13.706401,0.362309,0.215859,1.248867,-0.039828,0.891691,-7.027779,-0.683829,-0.612143,-0.168617,0.005185,0.001839,0.317010,0.001470,-0.000607,-0.933313,-0.000453,-0.000524,13.862473,0.239592,0.970874,0.240078,0.011698,-3.013323,-0.052568,0.998617,0.335124,0.014122,95.809067,0.994865,-0.101214,0.434929,-0.008469
1050.000000,1050.000000,0.349609,-1.028808,0.056641,1050.000000,-36.062241,25.352478,-20.603180,1050.000000,-6.564362,11.336578,-32.582718,14.116467,-2.685867,96.241974,0.282720,0.001213,0.001048,-0.956489,0.000110,0.000316,0.072104,-0.003215,-0.000045,-11.221324,2.485077,2.122768,1.791534,0.542667,0.582495,-7.743676,-0.715897,-0.032067,-0.163673,0.004944,-0.000241,0.318214,0.001204,-0.000266,-0.933783,-0.000470,-0.000017,14.116467,0.243894,0.969802,0.253995,0.013917,-2.685867,-0.046860,0.998901,0.327456,-0.007669,96.241974,0.994072,-0.108728,0.432907,-0.002022
1060.000000,1060.000000,0.336914,-1.045410,0.072266,1060.000000,-36.306381,27.061462,-22.190094,1060.000000,-6.564362,13.436584,-32.582718,14.383361,-2.358950,96.680664,0.284807,0.002087,0.000874,-0.956096,0.000393,0.000283,0.069039,-0.003065,0.000150,-9.605730,1.615594,-0.869483,2.689970,0.898437,0.355770,-8.194294,-0.450618,0.265278,-0.161361,0.002312,-0.002632,0.320408,0.002194,0.000990,-0.933435,0.000348,0.000818,14.383361,0.248409,0.968655,0.266893,0.012898,-2.358950,-0.041160,0.999153,0.326918,-0.000538,96.680664,0.993210,-0.116336,0.438690,0.005783
1070.000000,1070.000000,0.341797,-1.051269,0.062500,1070.000000,-37.343979,30.601501,-23.532867,1070.000000,-4.764359,13.436584,-32.582718,14.660916,-2.025313,97.146118,0.287227,0.002420,0.000333,-0.955558,0.000538,0.000145,0.066412,-0.002627,0.000438,-8.850178,0.755552,-0.860042,5.253336,2.563366,1.664929,-8.342103,-0.147809,0.302809,-0.160780,0.000581,-0.001731,0.325385,0.004977,0.002783,-0.931812,0.001623,0.001275,14.660916,0.253098,0.967441,0.277555,0.010662,-2.025313,-0.035341,0.999375,0.333636,0.006719,97.146118,0.992232,-0.124400,0.465454,0.026764
1080.000000,1080.000000,0.352539,-1.050781,0.048340,1080.000000,-38.625717,33.775330,-24.570465,1080.000000,-4.014359,11.336578,-32.582718,14.946142,-1.683031,97.633224,0.289816,0.002590,0.000170,-0.954936,0.000621,0.000083,0.064060,-0.002352,0.000275,-8.358954,0.491223,-0.264329,7.228607,1.975270,-0.588096,-8.153909,0.188194,0.336003,-0.158864,0.001916,0.001335,0.331808,0.006423,0.001446,-0.929874,0.001938,0.000315,14.946142,0.257911,0.966169,0.285226,0.007670,-1.683031,-0.029370,0.999569,0.342282,0.008646,97.633224,0.991139,-0.132831,0.487106,0.021652
1090.000000,1090.000000,0.350586,-1.043457,0.037109,1090.000000,-41.311264,36.094666,-26.035309,1090.000000,-4.014359,13.136581,-32.882721,15.243332,-1.318433,98.129822,0.292621,0.002804,0.000215,-0.954240,0.000696,0.000075,0.061635,-0.002424,-0.000072,-9.220715,-0.861760,-1.352983,8.191257,0.962651,-1.012619,-8.359583,-0.205674,-0.393868,-0.154442,0.004422,0.002506,0.337395,0.005587,-0.000836,-0.928608,0.001266,-0.000672,15.243332,0.262919,0.964818,0.297190,0.011964,-1.318433,-0.023009,0.999735,0.364598,0.022316,98.129822,0.989950,-0.141417,0.496597,0.009491
1100.000000,1100.000000,0.361816,-1.027344,0.018066,1100.000000,-41.128159,38.841248,-27.256012,1100.000000,-4.614365,13.136581,-32.882721,15.550160,-0.959640,98.638237,0.295684,0.003063,0.000259,-0.953472,0.000768,0.000072,0.058844,-0.002791,-0.000367,-7.230371,1.990344,2.852104,9.449786,1.258529,0.295878,-8.282649,0.076934,0.282608,-0.148624,0.005818,0.001397,0.342648,0.005252,-0.000335,-0.927633,0.000974,-0.000292,15.550160,0.268082,0.963396,0.306828,0.009639,-0.959640,-0.016748,0.999860,0.358793,-0.005805,98.638237,0.988656,-0.150195,0.508415,0.011818
1110.000000,1110.000000,0.344238,-1.010254,0.011719,1110.000000,-44.240952,40.367126,-28.903961,1110.000000,-4.314362,12.986588,-31.682724,15.870902,-0.573552,99.146469,0.298984,0.003300,0.000237,-0.952644,0.000828,0.000060,0.055485,-0.003359,-0.000568,-8.534602,-1.304232,-3.294576,9.397945,-0.051841,-1.310369,-8.589639,-0.306990,-0.383924,-0.142931,0.005693,-0.000125,0.348219,0.005571,0.000319,-0.926453,0.001181,0.000207,15.870902,0.273471,0.961880,0.320742,0.013913,-0.573552,-0.010010,0.999950,0.386088,0.027294,99.146469,0.987285,-0.158959,0.508232,-0.000183
1120.000000,1120.000000,0.345215,-0.993164,-0.005371,1120.000000,-46.377182,42.747498,-29.697418,1120.000000,-4.464371,12.986588,-32.732727,16.196983,-0.169495,99.663605,0.302353,0.003369,0.000069,-0.951805,0.000839,0.000010,0.051474,-0.004011,-0.000652,-8.761567,-0.226965,1.077267,10.132359,0.734413,0.786254,-8.020709,0.568930,0.875919,-0.137970,0.004960,-0.000733,0.353628,0.005410,-0.000162,-0.925155,0.001298,0.000117,16.196983,0.278941,0.960308,0.326081,0.005340,-0.169495,-0.002958,0.999996,0.404057,0.017969,99.663605,0.985810,-0.167863,0.517136,0.008904
1130.000000,1130.000000,0.350586,-0.995117,-0.023438,1130.000000,-47.964096,45.066833,-32.016754,1130.000000,-4.464371,14.186584,-30.782715,16.543232,0.247741,100.190041,0.305715,0.003361,-0.000008,-0.950978,0.000827,-0.000012,0.046679,-0.004795,-0.000784,-8.410682,0.350885,0.577850,10.707659,0.575300,-0.159113,-8.929414,-0.908705,-1.477634,-0.133912,0.004058,-0.000903,0.359227,0.005598,0.000189,-0.923593,0.001562,0.000264,16.543232,0.284739,0.958605,0.346249,0.020167,0.247741,0.004324,0.999991,0.417236,0.013179,100.190041,0.984226,-0.176914,0.526436,0.009300
1140.000000,1140.000000,0.348144,-0.990234,-0.009277,1140.000000,-49.856186,45.799255,-33.054352,1140.000000,-3.864365,14.186584,-30.782715,16.896681,0.681786,100.711510,0.309071,0.003356,-0.000005,-0.950149,0.000830,0.000003,0.041145,-0.005534,-0.000739,-8.349763,0.060919,-0.289967,9.675631,-1.032028,-1.607328,-8.501076,0.428338,1.337043,-0.130625,0.003288,-0.000770,0.366253,0.007027,0.001428,-0.921301,0.002292,0.000730,16.896681,0.290647,0.956830,0.353449,0.007200,0.681786,0.011899,0.999929,0.434045,0.016809,100.711510,0.982575,-0.185864,0.521469,-0.004967
1150.000000,1150.000000,0.331055,-0.996094,-0.021484,1150.000000,-51.870346,47.630310,-33.725739,1150.000000,-4.314362,14.786575,-32.432724,17.253351,1.134023,101.239723,0.312217,0.003147,-0.000210,-0.949359,0.000790,-0.000040,0.035190,-0.005955,-0.000421,-8.379236,-0.029473,-0.090392,9.745677,0.070046,1.102075,-7.726737,0.774339,0.346001,-0.127625,0.003000,-0.000288,0.374616,0.008362,0.001336,-0.918354,0.002947,0.000655,17.253351,0.296597,0.955003,0.356670,0.003222,1.134023,0.019791,0.999804,0.452238,0.018193,101.239723,0.980820,-0.194914,0.528214,0.006744
1160.000000,1160.000000,0.328613,-1.000000,-0.009277,1160.000000,-54.311752,47.630310,-34.214020,1160.000000,-4.314362,14.786575,-31.982727,17.610754,1.608462,101.756981,0.314830,0.002612,-0.000534,-0.948702,0.000657,-0.000133,0.029098,-0.006092,-0.000137,-8.783220,-0.403984,-0.374511,8.021459,-1.724218,-1.794265,-6.813889,0.912848,0.138508,-0.124987,0.002638,-0.000362,0.383179,0.008564,0.000201,-0.915179,0.003176,0.000229,17.610754,0.302549,0.953134,0.357403,0.000732,1.608462,0.028069,0.999606,0.474439,0.022201,101.756981,0.979021,-0.203761,0.517258,-0.010956
1170.000000,1170.000000,0.318848,-0.978027,-0.034668,1170.000000,-55.715561,49.034119,-34.519196,1170.000000,-5.364365,14.786575,-31.982727,17.966274,2.094532,102.278374,0.316764,0.001934,-0.000678,-0.948226,0.000476,-0.000180,0.022986,-0.006112,-0.000021,-8.127159,0.656061,1.060045,7.756333,-0.265126,1.459093,-5.777760,1.036129,0.123282,-0.123576,0.001411,-0.001228,0.391253,0.008074,-0.000490,-0.911949,0.003230,0.000054,17.966274,0.308457,0.951238,0.355520,-0.001883,2.094532,0.036548,0.999332,0.486071,0.011632,102.278374,0.977126,-0.212662,0.521393,0.004135
1180.000000,1180.000000,0.337402,-0.988769,-0.030762,1180.000000,-58.156967,50.254822,-34.580231,1180.000000,-2.514359,14.486588,-31.982727,18.316923,2.602288,102.801941,0.318160,0.001396,-0.000538,-0.947888,0.000338,-0.000139,0.016787,-0.006199,-0.000087,-8.488676,-0.361517,-1.017578,7.309291,-0.447042,-0.181916,-4.574362,1.203397,0.167268,-0.122683,0.000893,-0.000517,0.398305,0.007052,-0.001021,-0.909011,0.002937,-0.000293,18.316923,0.314273,0.949333,0.350649,-0.004871,2.602288,0.045403,0.998969,0.507756,0.021685,102.801941,0.975142,-0.221582,0.523567,0.002174
1190.000000,1190.000000,0.332031,-0.997558,-0.046875,1190.000000,-59.621811,52.940369,-35.251617,1190.000000,-2.507034,14.036575,-31.682724,18.668394,3.121897,103.338654,0.319225,0.001065,-0.000331,-0.947621,0.000267,-0.000071,0.010453,-0.006334,-0.000135,-7.853254,0.635422,0.996939,8.273826,0.964534,1.411576,-4.039824,0.534538,-0.668859,-0.119623,0.003060,0.002166,0.403819,0.005514,-0.001539,-0.906984,0.002027,-0.000910,18.668394,0.320090,0.947387,0.351471,0.000822,3.121897,0.054460,0.998516,0.519608,0.011853,103.338654,0.973023,-0.230706,0.536713,0.013145
1200.000000,1200.000000,0.337402,-0.978027,-0.022949,1200.000000,-60.110092,54.954529,-35.800934,1200.000000,-2.507034,14.029251,-31.679306,19.019218,3.643494,103.877678,0.320067,0.000842,-0.000223,-0.947386,0.000236,-0.000031,0.004170,-0.006283,0.000050,-6.308058,1.545196,0.909774,8.482876,0.209050,-0.755484,-3.418705,0.621120,0.086582,-0.113877,0.005746,0.002686,0.407537,0.003718,-0.001796,-0.906060,0.000924,-0.001103,19.019218,0.325885,0.945409,0.350824,-0.000647,3.643494,0.063548,0.997979,0.521598,0.001989,103.877678,0.970810,-0.239850,0.539024,0.002312
1210.000000,1210.000000,0.340820,-0.978027,-0.024414,1210.000000,-63.222885,57.273865,-35.434723,1210.000000,-1.607040,15.229263,-32.429306,19.360363,4.192221,104.418991,0.320835,0.000768,-0.000074,-0.947134,0.000252,0.000016,-0.001663,-0.005833,0.000451,-7.380863,-1.072805,-2.618001,8.934011,0.451135,0.242085,-1.961735,1.456969,0.835850,-0.106300,0.007577,0.001832,0.410081,0.002544,-0.001174,-0.905833,0.000227,-0.000697,19.360363,0.331509,0.943452,0.341145,-0.009680,4.192221,0.073103,0.997324,0.548727,0.027129,104.418991,0.968501,-0.249011,0.541313,0.002289
1220.000000,1220.000000,0.342285,-0.965332,-0.041504,1220.000000,-64.626694,58.982849,-35.373688,1220.000000,-1.607040,14.929260,-32.579300,19.695126,4.750124,104.954346,0.321685,0.000850,0.000082,-0.946821,0.000312,0.000060,-0.006945,-0.005282,0.000551,-6.699846,0.681017,1.753823,8.729201,-0.204809,-0.655944,-0.913144,1.048591,-0.408378,-0.096994,0.009305,0.001728,0.412338,0.002257,-0.000287,-0.905853,-0.000020,-0.000247,19.695126,0.337015,0.941499,0.334763,-0.006382,4.750124,0.082810,0.996565,0.557903,0.009176,104.954346,0.966132,-0.258049,0.535355,-0.005959
1230.000000,1230.000000,0.348633,-0.965820,-0.041016,1230.000000,-67.007065,61.180115,-36.106110,1230.000000,-2.507034,14.929260,-32.579300,20.031633,5.326206,105.487885,0.322714,0.001029,0.000178,-0.946422,0.000400,0.000087,-0.011907,-0.004961,0.000321,-6.985539,-0.285693,-0.966711,8.975882,0.246680,0.451489,-0.709234,0.203910,-0.844681,-0.087286,0.009708,0.000403,0.414263,0.001924,-0.000333,-0.905962,-0.000109,-0.000090,20.031633,0.342539,0.939504,0.336508,0.001745,5.326206,0.092826,0.995682,0.576082,0.018179,105.487885,0.963687,-0.267035,0.533539,-0.001816
1240.000000,1240.000000,0.341309,-0.998535,-0.022949,1240.000000,-68.044662,65.025330,-36.350250,1240.000000,-1.907043,15.529251,-31.379303,20.365202,5.906451,106.037148,0.323847,0.001133,0.000105,-0.945966,0.000455,0.000056,-0.016455,-0.004549,0.000413,-5.936123,1.049416,1.335109,10.744005,1.768124,1.521443,-0.052919,0.656315,0.452405,-0.078848,0.008439,-0.001269,0.416145,0.001882,-0.000042,-0.905873,0.000089,0.000198,20.365202,0.348003,0.937494,0.333569,-0.002939,5.906451,0.102905,0.994691,0.580245,0.004163,106.037148,0.961083,-0.276261,0.549263,0.015724
1250.000000,1250.000000,0.356445,-0.997070,-0.029785,1250.000000,-68.166733,68.626404,-37.082672,1250.000000,-1.907043,17.179260,-31.529297,20.700613,6.480972,106.601822,0.324927,0.001080,-0.000054,-0.945521,0.000445,-0.000010,-0.020315,-0.003860,0.000689,-4.077761,1.858362,0.808947,12.087666,1.343660,-0.424463,0.080731,0.133650,-0.522665,-0.071775,0.007073,-0.001366,0.419668,0.003523,0.001641,-0.904835,0.001038,0.000949,20.700613,0.353485,0.935440,0.335411,0.001842,6.480972,0.112873,0.993609,0.574522,-0.005723,106.601822,0.958313,-0.285719,0.564674,0.015411
1260.000000,1260.000000,0.335449,-1.006347,-0.042480,1260.000000,-66.701889,75.645447,-35.617828,1260.000000,-0.257034,16.879257,-31.229309,21.016111,7.033609,107.216713,0.325854,0.000928,-0.000152,-0.945126,0.000395,-0.000050,-0.023575,-0.003260,0.000600,-0.844043,3.233718,1.375355,16.540840,4.453175,3.109514,2.304492,2.223761,2.090111,-0.064856,0.006919,-0.000153,0.425919,0.006251,0.002728,-0.902434,0.002402,0.001363,21.016111,0.358630,0.933480,0.315498,-0.019913,7.033609,0.122452,0.992474,0.552637,-0.021885,107.216713,0.955192,-0.295987,0.614891,0.050217
1270.000000,1270.000000,0.349609,-0.995117,-0.043457,1270.000000,-66.030502,79.917908,-34.946442,1270.000000,-1.007034,17.029251,-32.729309,21.319576,7.572186,107.853867,0.326535,0.000681,-0.000247,-0.944813,0.000313,-0.000082,-0.026515,-0.002940,0.000321,1.358943,2.202987,-1.030731,17.925659,1.384819,-3.068356,3.571496,1.267004,-0.956757,-0.057104,0.007752,0.000833,0.433738,0.007819,0.001568,-0.899228,0.003206,0.000805,21.319576,0.363570,0.931567,0.303465,-0.012033,7.572186,0.131775,0.991280,0.538577,-0.014060,107.853867,0.951842,-0.306590,0.637154,0.022263
1280.000000,1280.000000,0.355469,-0.990722,-0.039551,1280.000000,-64.748764,84.678650,-35.434723,1280.000000,-1.007034,15.979263,-29.879303,21.622509,8.090688,108.517815,0.327132,0.000597,-0.000084,-0.944528,0.000285,-0.000027,-0.029195,-0.002680,0.000259,3.953316,2.594372,0.391386,19.592060,1.666401,0.281582,3.608006,0.036509,-1.230494,-0.049387,0.007717,-0.000035,0.441441,0.007703,-0.000116,-0.895930,0.003298,0.000091,21.622509,0.368490,0.929632,0.302933,-0.000532,8.090688,0.140740,0.990047,0.518502,-0.020074,108.517815,0.948225,-0.317600,0.663948,0.026794
1290.000000,1290.000000,0.358887,-0.989258,-0.023926,1290.000000,-62.612534,88.462830,-34.458160,1290.000000,-0.107040,15.979263,-29.879303,21.910763,8.580601,109.199043,0.327892,0.000760,0.000163,-0.944193,0.000335,0.000050,-0.031424,-0.002229,0.000451,7.129524,3.176208,0.581836,20.108620,0.516560,-1.149841,5.028963,1.420958,1.384448,-0.042343,0.007044,-0.000673,0.448503,0.007062,-0.000641,-0.892778,0.003153,-0.000145,21.910763,0.373162,0.927766,0.288254,-0.014679,8.580601,0.149201,0.988807,0.489913,-0.028589,109.199043,0.944382,-0.328851,0.681229,0.017281
1300.000000,1300.000000,0.360351,-0.980469,-0.006348,1300.000000,-61.635971,91.880798,-32.932281,1300.000000,0.051712,18.379257,-30.779297,22.179527,9.052885,109.893623,0.328889,0.000997,0.000237,-0.943797,0.000395,0.000060,-0.032846,-0.001422,0.000808,8.899464,1.769940,-1.406268,20.154976,0.046356,-0.470203,6.835547,1.806584,0.385626,-0.035172,0.007172,0.000128,0.455695,0.007191,0.000129,-0.889441,0.003336,0.000184,22.179527,0.377510,0.926006,0.268764,-0.019489,9.052885,0.157346,0.987544,0.472284,-0.017629,109.893623,0.940326,-0.340275,0.694580,0.013351
1310.000000,1310.000000,0.371094,-0.976074,-0.019531,1310.000000,-61.635971,93.406677,-31.955719,1310.000000,0.051712,18.510208,-30.321487,22.434954,9.516328,110.583229,0.330209,0.001319,0.000322,-0.943319,0.000478,0.000082,-0.033327,-0.000481,0.000940,9.551164,0.651700,-1.118240,18.311365,-1.843611,-1.889967,7.937253,1.101706,-0.704878,-0.027702,0.007470,0.000298,0.464318,0.008623,0.001432,-0.885235,0.004206,0.000869,22.434954,0.381634,0.924313,0.255426,-0.013338,9.516328,0.165329,0.986239,0.463443,-0.008842,110.583229,0.936162,-0.351568,0.689606,-0.004974
1320.000000,1320.000000,0.371094,-0.955078,-0.023438,1320.000000,-61.513901,95.054626,-31.772614,1320.000000,0.051712,18.510208,-30.321487,22.685623,9.969148,111.270370,0.331975,0.001767,0.000447,-0.942704,0.000615,0.000137,-0.033175,0.000152,0.000633,10.228127,0.676963,0.025263,16.672075,-1.639290,0.204321,8.156318,0.219065,-0.882640,-0.020533,0.007168,-0.000302,0.474320,0.010002,0.001379,-0.880113,0.005122,0.000916,22.685623,0.385675,0.922635,0.250669,-0.004757,9.969148,0.173118,0.984901,0.452820,-0.010623,111.270370,0.931879,-0.362769,0.687141,-0.002464
1330.000000,1330.000000,0.368652,-0.947265,-0.019531,1330.000000,-61.880112,95.542908,-32.016754,1330.000000,0.501724,18.960220,-29.871490,22.936382,10.415934,111.944733,0.334211,0.002235,0.000469,-0.941932,0.000773,0.000158,-0.032682,0.000493,0.000341,10.341819,0.113692,-0.563271,13.999893,-2.672182,-1.032892,7.917256,-0.239061,-0.458127,-0.013897,0.006636,-0.000532,0.484823,0.010503,0.000501,-0.874502,0.005611,0.000489,22.936382,0.389709,0.920938,0.250759,0.000090,10.415934,0.180793,0.983521,0.446786,-0.006034,111.944733,0.927545,-0.373712,0.674362,-0.012779
1340.000000,1340.000000,0.401855,-0.939941,-0.031738,1340.000000,-60.171127,95.970154,-32.871246,1340.000000,0.501724,18.960220,-29.271484,23.193924,10.836261,112.606865,0.337029,0.002819,0.000583,-0.940950,0.000982,0.000209,-0.032011,0.000671,0.000178,12.391780,2.049961,1.936269,11.443626,-2.556267,0.115915,7.084776,-0.832480,-0.593419,-0.007637,0.006261,-0.000375,0.495520,0.010697,0.000194,-0.868563,0.005939,0.000328,23.193924,0.393844,0.919177,0.257542,0.006783,10.836261,0.188003,0.982168,0.420327,-0.026459,112.606865,0.923164,-0.384406,0.662132,-0.012230
1350.000000,1350.000000,0.410644,-0.940429,-0.018066,1350.000000,-57.973862,96.153259,-33.481598,1350.000000,1.101715,18.960220,-29.271484,23.456816,11.225803,113.255096,0.340747,0.003717,0.000899,-0.939635,0.001315,0.000333,-0.031273,0.000738,0.000067,14.687681,2.295901,0.245940,8.827929,-2.615697,-0.059430,6.529836,-0.554940,0.277541,-0.001523,0.006113,-0.000147,0.506058,0.010538,-0.000159,-0.862498,0.006065,0.000126,23.456816,0.398058,0.917360,0.262892,0.005350,11.225803,0.194676,0.980868,0.389543,-0.030785,113.255096,0.918756,-0.394826,0.648232,-0.013901
1360.000000,1360.000000,0.423828,-0.944336,-0.011230,1360.000000,-56.264877,97.434998,-33.542633,1360.000000,0.951721,20.010208,-29.571487,23.720804,11.589732,113.900543,0.345473,0.004726,0.001008,-0.937938,0.001696,0.000381,-0.030335,0.000938,0.000199,16.265812,1.578131,-0.717771,7.452161,-1.375768,1.239929,6.522850,-0.006987,0.547953,0.004611,0.006134,0.000020,0.516154,0.010096,-0.000442,-0.856483,0.006015,-0.000050,23.720804,0.402280,0.915517,0.263988,0.001097,11.589732,0.200902,0.979611,0.363929,-0.025614,113.900543,0.914250,-0.405150,0.645447,-0.002785
1370.000000,1370.000000,0.435058,-0.935547,0.000488,1370.000000,-53.701401,98.899841,-34.458160,1370.000000,0.951721,21.660217,-30.021484,23.995394,11.919678,114.545982,0.351136,0.005663,0.000937,-0.935876,0.002062,0.000366,-0.028975,0.001361,0.000423,18.465658,2.199846,0.621716,6.340355,-1.111806,0.263962,5.674450,-0.848400,-0.841413,0.010422,0.005811,-0.000322,0.526422,0.010268,0.000171,-0.850160,0.006324,0.000309,23.995394,0.406663,0.913578,0.274590,0.010601,11.919678,0.206540,0.978438,0.329946,-0.033983,114.545982,0.909628,-0.415423,0.645439,-0.000008
1380.000000,1380.000000,0.423828,-0.944336,0.038086,1380.000000,-49.856186,100.852966,-33.725739,1380.000000,4.401718,21.660217,-30.021484,24.265108,12.202785,115.195885,0.357515,0.006379,0.000716,-0.933522,0.002354,0.000292,-0.026818,0.002157,0.000796,21.634724,3.169065,0.969219,5.766182,-0.574172,0.537634,6.453077,0.778627,1.627027,0.017381,0.006959,0.001148,0.537347,0.010925,0.000658,-0.843182,0.006978,0.000654,24.265108,0.410959,0.911654,0.269714,-0.004875,12.202785,0.211372,0.977406,0.283107,-0.046839,115.195885,0.904858,-0.425714,0.649902,0.004463
1390.000000,1390.000000,0.408203,-0.943359,0.044434,1390.000000,-47.048569,102.684021,-32.627106,1390.000000,3.655136,21.510208,-28.821487,24.526653,12.448611,115.845604,0.364048,0.006533,0.000154,-0.931086,0.002436,0.000082,-0.023411,0.003407,0.001250,23.460083,1.825359,-1.343706,5.102274,-0.663908,-0.089736,7.491414,1.038337,0.259709,0.027924,0.010543,0.003583,0.548420,0.011073,0.000148,-0.835737,0.007446,0.000468,24.526653,0.415116,0.909768,0.261545,-0.008169,12.448611,0.215564,0.976490,0.245827,-0.037280,115.845604,0.899972,-0.435948,0.649719,-0.000183
1400.000000,1400.000000,0.392090,-0.942871,0.055664,1400.000000,-42.165756,103.599548,-32.016754,1400.000000,3.655136,21.034332,-27.461243,24.784388,12.635915,116.483932,0.370091,0.006043,-0.000490,-0.928808,0.002278,-0.000158,-0.018686,0.004725,0.001318,27.026606,3.566523,1.741163,3.599792,-1.502482,-0.838573,7.946097,0.454683,-0.583654,0.040986,0.013062,0.002520,0.559198,0.010778,-0.000295,-0.828020,0.007716,0.000271,24.784388,0.419205,0.907892,0.257734,-0.003811,12.635915,0.218755,0.975780,0.187304,-0.058523,116.483932,0.895059,-0.445947,0.638329,-0.011391
1410.000000,1410.000000,0.379883,-0.943847,0.085449,1410.000000,-37.771225,103.111267,-28.293610,1410.000000,3.505142,21.034332,-27.461243,25.006720,12.768997,117.097260,0.375177,0.005086,-0.000957,-0.926867,0.001941,-0.000337,-0.012653,0.006033,0.001308,29.720699,2.694094,-0.872429,0.868651,-2.731141,-1.228659,11.309615,3.363518,2.908835,0.054199,0.013212,0.000150,0.569462,0.010264,-0.000514,-0.820229,0.007791,0.000075,25.006720,0.422725,0.906258,0.222332,-0.035402,12.768997,0.221021,0.975269,0.133082,-0.054221,117.097260,0.890235,-0.455502,0.613327,-0.025002
1420.000000,1420.000000,0.376953,-0.955566,0.084961,1420.000000,-34.231186,99.998474,-25.485992,1420.000000,5.605133,21.334335,-29.411240,25.201851,12.855603,117.659721,0.379050,0.003873,-0.001214,-0.925361,0.001505,-0.000435,-0.005266,0.007388,0.001354,31.256063,1.535364,-1.158730,-4.144019,-5.012670,-2.281528,13.468676,2.159060,-1.204458,0.067497,0.013298,0.000086,0.578318,0.008856,-0.001408,-0.813014,0.007215,-0.000576,25.201851,0.425809,0.904813,0.195131,-0.027201,12.855603,0.222495,0.974934,0.086606,-0.046476,117.659721,0.885720,-0.464220,0.562462,-0.050865
1430.000000,1430.000000,0.376953,-0.919922,0.081055,1430.000000,-32.339096,95.848083,-23.654938,1430.000000,4.705139,23.884338,-27.911240,25.378506,12.911538,118.160980,0.381773,0.002724,-0.001149,-0.924251,0.001111,-0.000395,0.003126,0.008392,0.001004,30.966440,-0.289623,-1.824987,-9.707338,-5.563320,-0.550650,14.459145,0.990469,-1.168591,0.081408,0.013911,0.000613,0.586004,0.007686,-0.001170,-0.806208,0.006806,-0.000409,25.378506,0.428596,0.903496,0.176655,-0.018476,12.911538,0.223446,0.974716,0.055935,-0.030671,118.160980,0.881625,-0.471950,0.501259,-0.061203
1440.000000,1440.000000,0.392578,-0.888183,0.069336,1440.000000,-32.766342,91.941833,-20.908356,1440.000000,4.705139,21.484329,-28.061234,25.527317,12.959663,118.605217,0.383849,0.002076,-0.000648,-0.923319,0.000931,-0.000179,0.011889,0.008763,0.000371,28.365883,-2.600557,-2.310934,-14.527428,-4.820089,0.743230,16.186502,1.727358,0.736889,0.094660,0.013251,-0.000660,0.593581,0.007577,-0.000109,-0.799188,0.007020,0.000215,25.527317,0.430941,0.902380,0.148811,-0.027843,12.959663,0.224265,0.974528,0.048125,-0.007810,118.605217,0.877939,-0.478772,0.444237,-0.057022
1450.000000,1450.000000,0.396484,-0.877929,0.044922,1450.000000,-33.376694,90.476990,-17.185211,1450.000000,5.155136,21.484329,-28.061234,25.639259,13.002344,119.018280,0.385886,0.002037,-0.000039,-0.922323,0.000996,0.000065,0.020301,0.008412,-0.000351,25.704098,-2.661785,-0.061228,-16.547487,-2.020060,2.800030,18.639954,2.453451,0.726093,0.106260,0.011600,-0.001651,0.599951,0.006371,-0.001206,-0.792948,0.006240,-0.000781,25.639259,0.432704,0.901536,0.111942,-0.036869,13.002344,0.224991,0.974361,0.042681,-0.005445,119.018280,0.874465,-0.485089,0.413063,-0.031174
1460.000000,1460.000000,0.399902,-0.867187,0.044922,1460.000000,-33.620834,89.561462,-16.208649,1460.000000,6.355133,21.784332,-28.061234,25.742338,13.037266,119.405579,0.388186,0.002300,0.000263,-0.921163,0.001160,0.000164,0.027755,0.007454,-0.000958,23.521797,-2.182301,0.479485,-17.807819,-1.260332,0.759727,18.187141,-0.452812,-2.906263,0.117107,0.010848,-0.000752,0.604181,0.004230,-0.002140,-0.788195,0.004754,-0.001486,25.742338,0.434325,0.900756,0.103079,-0.008863,13.037266,0.225585,0.974224,0.034922,-0.007759,119.405579,0.871166,-0.490989,0.387299,-0.025764
1470.000000,1470.000000,0.409180,-0.872070,0.035156,1470.000000,-33.132553,88.340759,-15.842438,1470.000000,6.355133,22.834335,-27.311234,25.843161,13.058876,119.763832,0.390838,0.002651,0.000351,-0.919831,0.001332,0.000171,0.034005,0.006250,-0.001204,22.136753,-1.385044,0.797256,-19.185614,-1.377794,-0.117462,17.120275,-1.066866,-0.614054,0.128154,0.011046,0.000199,0.607371,0.003189,-0.001041,-0.784014,0.004181,-0.000573,25.843161,0.435909,0.899991,0.100822,-0.002256,13.058876,0.225952,0.974138,0.021610,-0.013311,119.763832,0.868079,-0.496426,0.358253,-0.029045
1480.000000,1480.000000,0.404297,-0.883301,0.038086,1480.000000,-30.935287,84.983826,-14.560699,1480.000000,7.105133,22.834335,-27.311234,25.933161,13.052213,120.072693,0.393777,0.002939,0.000288,-0.918378,0.001454,0.000122,0.039014,0.005009,-0.001241,22.420540,0.283787,1.668831,-22.417162,-3.231548,-1.853754,16.955168,-0.165108,0.901758,0.139482,0.011328,0.000282,0.610765,0.003394,0.000205,-0.779430,0.004584,0.000403,25.933161,0.437322,0.899305,0.090000,-0.010822,13.052213,0.225839,0.974165,-0.006663,-0.028274,120.072693,0.865390,-0.501098,0.308861,-0.049393
1490.000000,1490.000000,0.419922,-0.894043,0.053223,1490.000000,-28.005600,82.359314,-12.973785,1490.000000,6.955139,22.384338,-27.311234,26.009726,13.011934,120.340607,0.396849,0.003072,0.000133,-0.916877,0.001501,0.000048,0.042990,0.003976,-0.001034,23.296070,0.875530,0.591743,-24.588648,-2.171486,1.060062,17.031942,0.076775,0.241882,0.150819,0.011337,0.000009,0.614322,0.003558,0.000164,-0.774507,0.004923,0.000339,26.009726,0.438524,0.898720,0.076565,-0.013435,13.011934,0.225154,0.974323,-0.040278,-0.033615,120.340607,0.863038,-0.505139,0.267914,-0.040947
1500.000000,1500.000000,0.405762,-0.882324,0.062500,1500.000000,-23.733139,81.260681,-9.006500,1500.000000,6.955139,23.284332,-27.761230,26.049831,12.926287,120.583923,0.399948,0.003099,0.000028,-0.915364,0.001512,0.000011,0.046366,0.003376,-0.000600,25.293547,1.997477,1.121946,-25.023020,-0.434372,1.737114,19.314756,2.282814,2.206039,0.161452,0.010633,-0.000704,0.617526,0.003204,-0.000354,-0.769802,0.004705,-0.000217,26.049831,0.439153,0.898412,0.040106,-0.036459,12.926287,0.223697,0.974659,-0.085648,-0.045369,120.583923,0.860885,-0.508800,0.243317,-0.024597
1510.000000,1510.000000,0.401855,-0.898926,0.074707,1510.000000,-20.376205,81.565857,-4.367828,1510.000000,7.105133,23.284332,-27.761230,26.047384,12.805403,120.818176,0.402846,0.002898,-0.000201,-0.913926,0.001438,-0.000074,0.049533,0.003167,-0.000209,26.149872,0.856325,-1.141151,-23.983101,1.039919,1.474291,21.972702,2.657946,0.375132,0.170622,0.009170,-0.001463,0.620456,0.002930,-0.000274,-0.765456,0.004346,-0.000359,26.047384,0.439114,0.898431,-0.002447,-0.042553,12.805403,0.221640,0.975128,-0.120884,-0.035236,120.818176,0.858797,-0.512315,0.234253,-0.009064
1520.000000,1520.000000,0.403809,-0.877441,0.060547,1520.000000,-19.704819,82.420349,0.755310,1520.000000,5.605133,22.834335,-27.311234,25.998016,12.676434,121.050964,0.405363,0.002517,-0.000381,-0.912641,0.001285,-0.000153,0.052597,0.003064,-0.000103,24.265732,-1.884140,-2.740465,-22.415529,1.567572,0.527653,24.785042,2.812340,0.154394,0.177427,0.006805,-0.002365,0.623196,0.002740,-0.000190,-0.761674,0.003782,-0.000564,25.998016,0.438340,0.898809,-0.049368,-0.046921,12.676434,0.219445,0.975625,-0.128969,-0.008085,121.050964,0.856709,-0.515800,0.232788,-0.001465
1530.000000,1530.000000,0.401855,-0.867187,0.066895,1530.000000,-18.789291,83.641052,4.905701,1530.000000,5.607086,23.584335,-24.761230,25.911856,12.537444,121.289772,0.407603,0.002240,-0.000277,-0.911475,0.001166,-0.000119,0.055425,0.002828,-0.000237,22.683626,-1.582106,0.302034,-20.546240,1.869289,0.301718,26.334131,1.549089,-1.263250,0.180917,0.003490,-0.003315,0.626634,0.003439,0.000699,-0.758023,0.003651,-0.000131,25.911856,0.436988,0.899467,-0.086161,-0.036793,12.537444,0.217078,0.976154,-0.138989,-0.010020,121.289772,0.854552,-0.519367,0.238808,0.006020
1540.000000,1540.000000,0.408203,-0.849121,0.073242,1540.000000,-20.559311,82.481384,7.713318,1540.000000,8.157089,23.571152,-24.757812,25.802702,12.415207,121.513695,0.409768,0.002164,-0.000076,-0.910341,0.001134,-0.000032,0.058047,0.002622,-0.000206,18.581480,-4.102146,-2.520041,-21.035173,-0.488934,-2.358223,26.367579,0.033447,-1.515642,0.182940,0.002023,-0.001467,0.632003,0.005368,0.001929,-0.753064,0.004958,0.001307,25.802702,0.435274,0.900298,-0.109154,-0.022993,12.415207,0.214995,0.976615,-0.122237,0.016752,121.513695,0.852515,-0.522702,0.223923,-0.014885
1550.000000,1550.000000,0.439941,-0.839844,0.075195,1550.000000,-22.939682,79.978943,9.239197,1550.000000,7.557083,23.121155,-25.057816,25.683987,12.315417,121.708679,0.412252,0.002484,0.000320,-0.909051,0.001290,0.000156,0.060614,0.002567,-0.000054,14.174072,-4.407408,-0.305262,-22.687468,-1.652294,-1.163361,25.072508,-1.295071,-1.328518,0.186438,0.003498,0.001475,0.638588,0.006586,0.001217,-0.746623,0.006441,0.001483,25.683987,0.433407,0.901198,-0.118715,-0.009562,12.315417,0.213293,0.976988,-0.099790,0.022448,121.708679,0.850731,-0.525601,0.194984,-0.028938
1560.000000,1560.000000,0.440430,-0.822265,0.070801,1560.000000,-25.930405,76.927185,9.605408,1560.000000,7.557083,22.521149,-24.307816,25.568285,12.243642,121.867676,0.415538,0.003286,0.000802,-0.907383,0.001668,0.000378,0.063120,0.002506,-0.000061,9.504013,-4.670059,-0.262651,-24.638992,-1.951525,-0.299231,22.683535,-2.388973,-1.093903,0.191465,0.005028,0.001530,0.644885,0.006297,-0.000288,-0.739908,0.006715,0.000274,25.568285,0.431587,0.902072,-0.115702,0.003014,12.243642,0.212069,0.977255,-0.071775,0.028014,121.867676,0.849270,-0.527959,0.158997,-0.035988
1570.000000,1570.000000,0.440430,-0.814453,0.075195,1570.000000,-27.700424,73.265076,8.689880,1570.000000,7.857086,22.521149,-24.307816,25.469242,12.187462,121.984016,0.419723,0.004185,0.000899,-0.905285,0.002097,0.000429,0.065504,0.002383,-0.000123,6.362763,-3.141250,1.528809,-26.915314,-2.276321,-0.324797,19.185926,-3.497608,-1.108635,0.197160,0.005695,0.000667,0.650304,0.005419,-0.000879,-0.733643,0.006265,-0.000450,25.469242,0.430027,0.902816,-0.099043,0.016659,12.187462,0.211111,0.977462,-0.056180,0.015595,121.984016,0.848196,-0.529683,0.116341,-0.042656
1580.000000,1580.000000,0.416016,-0.827148,0.053223,1580.000000,-29.226303,71.678162,8.750916,1580.000000,11.007095,25.071152,-24.457825,25.377567,12.144506,122.076164,0.424387,0.004664,0.000479,-0.902954,0.002331,0.000234,0.067596,0.002092,-0.000291,3.698083,-2.664680,0.476570,-26.911371,0.003942,2.280264,16.847326,-2.338600,1.159008,0.204814,0.007654,0.001959,0.655247,0.004943,-0.000476,-0.727119,0.006524,0.000259,25.377567,0.428581,0.903503,-0.091675,0.007368,12.144506,0.210378,0.977620,-0.042956,0.013224,122.076164,0.847343,-0.531046,0.092148,-0.024193
1590.000000,1590.000000,0.416504,-0.849609,0.055176,1590.000000,-28.982162,70.823669,9.666443,1590.000000,8.302200,23.571152,-24.757812,25.284477,12.097917,122.148758,0.428848,0.004461,-0.000203,-0.900731,0.002223,-0.000108,0.069089,0.001493,-0.000600,2.939091,-0.758992,1.905688,-26.105480,0.805891,0.801949,15.461259,-1.386067,0.952533,0.214920,0.010106,0.002452,0.660140,0.004893,-0.000050,-0.719739,0.007380,0.000856,25.284477,0.427113,0.904198,-0.093090,-0.001415,12.097917,0.209583,0.977791,-0.046589,-0.003633,122.148758,0.846669,-0.532119,0.072594,-0.019554
1600.000000,1600.000000,0.387207,-0.885254,0.064941,1600.000000,-28.127670,69.419861,11.924744,1600.000000,8.302200,23.247223,-24.900009,25.175644,12.042600,122.196602,0.432376,0.003527,-0.000933,-0.898975,0.001756,-0.000467,0.069969,0.000880,-0.000612,2.817353,-0.121738,0.637254,-25.794907,0.310574,-0.495317,15.419038,-0.042221,1.343846,0.224505,0.009584,-0.000522,0.664228,0.004088,-0.000805,-0.713021,0.006718,-0.000662,25.175644,0.425395,0.905008,-0.108833,-0.015743,12.042600,0.208639,0.977993,-0.055317,-0.008728,122.196602,0.846225,-0.532826,0.047844,-0.024750
1610.000000,1610.000000,0.346680,-0.916992,0.067871,1610.000000,-25.503159,67.222595,17.051697,1610.000000,10.102203,23.247223,-24.900009,25.020849,11.961906,122.212547,0.434010,0.001635,-0.001893,-0.898145,0.000830,-0.000926,0.070506,0.000537,-0.000343,4.388421,1.571067,1.692805,-26.172241,-0.377335,-0.687908,18.066132,2.647094,2.689315,0.232596,0.008091,-0.001493,0.666689,0.002460,-0.001628,-0.708114,0.004907,-0.001812,25.020849,0.422948,0.906154,-0.154795,-0.045961,11.961906,0.207261,0.978286,-0.080693,-0.025376,122.212547,0.846076,-0.533062,0.015945,-0.031898
1620.000000,1620.000000,0.335449,-0.941406,0.079590,1620.000000,-24.404526,64.292908,23.521423,1620.000000,11.752213,24.747223,-24.600006,24.804377,11.871547,122.186928,0.432922,-0.001089,-0.002723,-0.898635,-0.000490,-0.001320,0.070950,0.000444,-0.000093,4.349757,-0.038663,-1.609730,-27.119190,-0.946949,-0.569614,21.704311,3.638180,0.991086,0.241809,0.009213,0.001122,0.667852,0.001163,-0.001298,-0.703919,0.004194,-0.000712,24.804377,0.419521,0.907745,-0.216473,-0.061678,11.871547,0.205718,0.978611,-0.090360,-0.009666,122.186928,0.846315,-0.532683,-0.025620,-0.041565
1630.000000,1630.000000,0.326660,-0.909668,0.089355,1630.000000,-24.343491,61.241150,29.380798,1630.000000,11.752213,23.547226,-24.750000,24.530003,11.781759,122.114799,0.429128,-0.003794,-0.002706,-0.900402,-0.001767,-0.001277,0.071593,0.000643,0.000199,3.305437,-1.044320,-1.005657,-27.999912,-0.880722,0.066227,24.367313,2.663002,-0.975178,0.253555,0.011746,0.002532,0.668261,0.000409,-0.000754,-0.699384,0.004535,0.000341,24.530003,0.415170,0.909744,-0.274374,-0.057901,11.781759,0.204184,0.978932,-0.089787,0.000572,122.114799,0.846985,-0.531617,-0.072128,-0.046509
1640.000000,1640.000000,0.326660,-0.904297,0.088379,1640.000000,-22.939682,56.480408,33.592224,1640.000000,12.652206,23.547226,-24.750000,24.212498,11.678954,121.976341,0.423314,-0.005814,-0.002019,-0.903066,-0.002664,-0.000897,0.072642,0.001049,0.000406,3.621840,0.316403,1.360723,-30.334663,-2.334751,-1.454029,25.135485,0.768171,-1.894831,0.267310,0.013755,0.002010,0.667551,-0.000709,-0.001118,-0.694925,0.004459,-0.000077,24.212498,0.410122,0.912031,-0.317505,-0.043131,11.678954,0.202428,0.979297,-0.102805,-0.013018,121.976341,0.848267,-0.529569,-0.138458,-0.066330
1650.000000,1650.000000,0.339355,-0.915527,0.105469,1650.000000,-21.657944,50.987244,36.338806,1650.000000,11.302200,22.947220,-24.300003,23.865534,11.564027,121.763596,0.416247,-0.007067,-0.001253,-0.906220,-0.003154,-0.000490,0.074184,0.001541,0.000492,3.780889,0.159050,-0.157353,-33.056873,-2.722210,-0.387459,24.342175,-0.793310,-1.561481,0.281598,0.014288,0.000533,0.665590,-0.001961,-0.001252,-0.691153,0.003772,-0.000687,23.865534,0.404592,0.914497,-0.346964,-0.029459,11.564027,0.200463,0.979701,-0.114927,-0.012122,121.763596,0.850227,-0.526416,-0.212746,-0.074287
1660.000000,1660.000000,0.350586,-0.918945,0.125977,1660.000000,-22.146225,45.555115,38.414001,1660.000000,11.302200,23.547226,-23.700012,23.495623,11.453666,121.479767,0.408609,-0.007638,-0.000571,-0.909501,-0.003281,-0.000126,0.076464,0.002280,0.000739,2.219028,-1.561861,-1.720911,-35.364330,-2.307457,0.414753,22.882122,-1.460052,-0.666742,0.294342,0.012743,-0.001545,0.663347,-0.002244,-0.000283,-0.687993,0.003160,-0.000613,23.495623,0.398679,0.917091,-0.369911,-0.022947,11.453666,0.198575,0.980086,-0.110361,0.004566,121.479767,0.852825,-0.522197,-0.283829,-0.071083
1670.000000,1670.000000,0.375488,-0.908203,0.119141,1670.000000,-23.061752,41.282654,38.597107,1670.000000,11.902206,23.547226,-23.700012,23.122063,11.350861,121.140564,0.401153,-0.007456,0.000182,-0.912544,-0.003043,0.000238,0.079626,0.003162,0.000882,0.372899,-1.846130,-0.284269,-36.232689,-0.868359,1.439098,19.649876,-3.232246,-1.772194,0.304838,0.010496,-0.002247,0.661793,-0.001554,0.000690,-0.684912,0.003081,-0.000079,23.122063,0.392691,0.919670,-0.373560,-0.003649,11.350861,0.196817,0.980440,-0.102805,0.007556,121.140564,0.855901,-0.517139,-0.339203,-0.055374
1680.000000,1680.000000,0.391601,-0.908691,0.113281,1680.000000,-23.672104,39.634705,39.512634,1680.000000,11.902206,24.747223,-23.100006,22.739014,11.251738,120.775322,0.394661,-0.006492,0.000964,-0.915038,-0.002495,0.000548,0.083350,0.003724,0.000562,-1.025761,-1.398659,0.447470,-34.379845,1.852844,2.721203,17.318790,-2.331085,0.901161,0.313631,0.008793,-0.001703,0.661545,-0.000247,0.001307,-0.681170,0.003742,0.000661,22.739014,0.386534,0.922275,-0.383049,-0.009489,11.251738,0.195120,0.980779,-0.099123,0.003682,120.775322,0.859180,-0.511673,-0.365242,-0.026039
1690.000000,1690.000000,0.389160,-0.914062,0.094727,1690.000000,-25.197983,41.221619,40.794373,1690.000000,11.902206,23.997223,-21.750000,22.344790,11.165157,120.418564,0.389521,-0.005141,0.001351,-0.916893,-0.001855,0.000640,0.087064,0.003715,-0.000009,-3.177366,-2.151605,-0.752945,-29.460337,4.919508,3.066664,15.470757,-1.848034,0.483051,0.321056,0.007425,-0.001368,0.663249,0.001703,0.001950,-0.676036,0.005135,0.001393,22.344790,0.380179,0.924913,-0.394224,-0.011175,11.165157,0.193638,0.981073,-0.086580,0.012543,120.418564,0.862350,-0.506313,-0.356758,0.008484
1700.000000,1700.000000,0.401367,-0.917969,0.094727,1700.000000,-23.550034,44.578552,42.564392,1700.000000,13.702209,23.997223,-21.750000,21.936487,11.060327,120.087959,0.385712,-0.003809,0.001332,-0.918191,-0.001298,0.000557,0.090287,0.003223,-0.000492,-2.098122,1.079244,3.230849,-23.154682,6.305655,1.386147,14.188452,-1.282305,0.565729,0.328362,0.007306,-0.000119,0.666571,0.003322,0.001619,-0.669224,0.006811,0.001676,21.936487,0.373579,0.927599,-0.408302,-0.014078,11.060327,0.191842,0.981426,-0.104831,-0.018250,120.087959,0.865257,-0.501329,-0.330605,0.026154
1710.000000,1710.000000,0.416992,-0.942383,0.110840,1710.000000,-21.718979,51.963806,45.249939,1710.000000,13.702209,25.197220,-22.050003,21.507013,10.936426,119.820419,0.383197,-0.002515,0.001294,-0.918976,-0.000785,0.000513,0.092973,0.002687,-0.000536,-0.927563,1.170559,0.091315,-13.444403,9.710279,3.404625,13.837300,-0.351151,0.931153,0.336892,0.008530,0.001224,0.670589,0.004018,0.000696,-0.660919,0.008305,0.001494,21.507013,0.366615,0.930373,-0.429474,-0.021172,10.936426,0.189720,0.981838,-0.123900,-0.019070,119.820419,0.867588,-0.497283,-0.267540,0.063065
1720.000000,1720.000000,0.422363,-0.957031,0.091797,1720.000000,-20.437241,55.137634,45.249939,1720.000000,14.752213,25.197220,-22.050003,21.084602,10.799726,119.571548,0.381891,-0.001306,0.001209,-0.919290,-0.000315,0.000470,0.095207,0.002233,-0.000453,-0.378470,0.549093,-0.621466,-8.537338,4.907064,-4.803215,10.894876,-2.942425,-2.591273,0.346536,0.009644,0.001114,0.674896,0.004306,0.000288,-0.651482,0.009437,0.001132,21.084602,0.359746,0.933050,-0.422411,0.007063,10.799726,0.187377,0.982288,-0.136700,-0.012799,119.571548,0.869740,-0.493510,-0.248871,0.018669
1730.000000,1730.000000,0.397461,-0.970703,0.102051,1730.000000,-19.277573,56.297302,44.273376,1730.000000,14.002213,24.447220,-22.500000,20.679640,10.652340,119.320145,0.381372,-0.000520,0.000786,-0.919331,-0.000041,0.000274,0.096879,0.001672,-0.000561,0.008602,0.387072,-0.162022,-5.941864,2.595475,-2.311590,7.227335,-3.667541,-0.725116,0.356565,0.010029,0.000386,0.678735,0.003840,-0.000467,-0.642012,0.009470,0.000033,20.679640,0.353142,0.935570,-0.404963,0.017448,10.652340,0.184849,0.982767,-0.147387,-0.010687,119.320145,0.871897,-0.489689,-0.251404,-0.002533
1740.000000,1740.000000,0.376465,-0.989746,0.110352,1740.000000,-18.972397,56.419373,43.968201,1740.000000,16.252213,23.997223,-22.050003,20.285175,10.503390,119.054344,0.380850,-0.000522,-0.000003,-0.919416,-0.000085,-0.000044,0.098121,0.001242,-0.000430,-0.454628,-0.463230,-0.850302,-4.537121,1.404742,-1.190732,4.486524,-2.740811,0.926730,0.367063,0.010498,0.000469,0.680965,0.002230,-0.001610,-0.633681,0.008331,-0.001139,20.285175,0.346693,0.937979,-0.394464,0.010498,10.503390,0.182294,0.983244,-0.148950,-0.001563,119.054344,0.874159,-0.485639,-0.265800,-0.014397
1750.000000,1750.000000,0.358398,-1.008789,0.107422,1750.000000,-19.216537,55.320740,44.395447,1750.000000,16.245377,22.947220,-20.700012,19.892870,10.358592,118.758430,0.379573,-0.001276,-0.000754,-0.919833,-0.000417,-0.000332,0.099157,0.001036,-0.000207,-1.402200,-0.947571,-0.484341,-4.402327,0.134795,-1.269948,2.662388,-1.824136,0.916674,0.379405,0.012341,0.001843,0.681041,0.000077,-0.002153,-0.626287,0.007395,-0.000937,19.892870,0.340263,0.940331,-0.392305,0.002159,10.358592,0.179808,0.983702,-0.144798,0.004151,118.758430,0.876656,-0.481118,-0.295914,-0.030113
1760.000000,1760.000000,0.353516,-0.996582,0.093262,1760.000000,-20.437241,52.513123,45.127869,1760.000000,15.645370,22.934036,-20.697083,19.498369,10.227859,118.412483,0.377245,-0.002328,-0.001052,-0.920710,-0.000877,-0.000461,0.099896,0.000739,-0.000296,-3.198030,-1.795830,-0.848259,-5.897074,-1.494748,-1.629542,1.275200,-1.387187,0.436949,0.393486,0.014082,0.001741,0.679412,-0.001629,-0.001706,-0.619328,0.006958,-0.000436,19.498369,0.333780,0.942651,-0.394501,-0.002195,10.227859,0.177563,0.984109,-0.130733,0.014066,118.412483,0.879545,-0.475816,-0.345947,-0.050034
1770.000000,1770.000000,0.333984,-0.991699,0.070801,1770.000000,-21.413803,48.057556,44.822693,1770.000000,15.795364,23.084045,-21.147079,19.110643,10.109365,118.001099,0.373939,-0.003307,-0.000979,-0.922047,-0.001337,-0.000460,0.099998,0.000102,-0.000638,-4.595556,-1.397526,0.398304,-8.818784,-2.921710,-1.426962,-0.991369,-2.266569,-0.879381,0.407339,0.013852,-0.000230,0.676835,-0.002577,-0.000948,-0.613163,0.006165,-0.000793,19.110643,0.327393,0.944888,-0.387726,0.006775,10.109365,0.175528,0.984474,-0.118495,0.012238,118.001099,0.882939,-0.469489,-0.411385,-0.065437
1780.000000,1780.000000,0.336426,-0.976074,0.051758,1780.000000,-22.939682,43.113708,45.127869,1780.000000,15.795364,23.684036,-20.997070,18.722565,10.009572,117.522911,0.369853,-0.004085,-0.000779,-0.923794,-0.001747,-0.000410,0.099063,-0.000935,-0.001036,-6.382338,-1.786782,-0.389256,-11.925816,-3.107032,-0.185322,-2.477650,-1.486282,0.780287,0.419592,0.012253,-0.001600,0.673958,-0.002877,-0.000300,-0.608049,0.005114,-0.001051,18.722565,0.320986,0.947084,-0.388079,-0.000353,10.009572,0.173813,0.984779,-0.099792,0.018703,117.522911,0.886826,-0.462103,-0.478188,-0.066803
1790.000000,1790.000000,0.343750,-0.963867,0.026367,1790.000000,-24.709702,36.460876,45.066833,1790.000000,16.695374,23.684036,-20.997070,18.337234,9.932197,116.965172,0.365409,-0.004444,-0.000359,-0.925804,-0.002010,-0.000263,0.096766,-0.002297,-0.001362,-8.226614,-1.844276,-0.057494,-16.358326,-4.432510,-1.325479,-4.178496,-1.700846,-0.214565,0.430100,0.010508,-0.001745,0.671326,-0.002632,0.000245,-0.603603,0.004446,-0.000668,18.337234,0.314609,0.949221,-0.385330,0.002748,9.932197,0.172483,0.985013,-0.077375,0.022417,116.965172,0.891282,-0.453449,-0.557739,-0.079552
1800.000000,1800.000000,0.325195,-0.955566,0.015137,1800.000000,-24.892807,28.343201,44.395447,1800.000000,17.295364,22.784042,-19.497070,17.960524,9.863119,116.316055,0.360958,-0.004451,-0.000007,-0.927940,-0.002136,-0.000126,0.092934,-0.003832,-0.001535,-8.365043,-0.138429,1.705847,-21.753340,-5.395014,-0.962503,-6.302767,-2.124271,-0.423425,0.440033,0.009933,-0.000575,0.668950,-0.002375,0.000257,-0.599063,0.004540,0.000094,17.960524,0.308362,0.951269,-0.376711,0.008619,9.863119,0.171295,0.985220,-0.069077,0.008298,116.316055,0.896362,-0.443322,-0.649117,-0.091377
1810.000000,1810.000000,0.319336,-0.996582,0.004395,1810.000000,-24.709702,21.202087,43.601990,1810.000000,17.295364,21.434036,-19.197083,17.593252,9.800401,115.585564,0.356373,-0.004585,-0.000134,-0.930227,-0.002287,-0.000151,0.087614,-0.005320,-0.001489,-8.109797,0.255246,0.393675,-25.673321,-3.919981,1.475033,-8.339373,-2.036605,0.087666,0.450776,0.010743,0.000810,0.666311,-0.002639,-0.000264,-0.593995,0.005068,0.000528,17.593252,0.302258,0.953226,-0.367271,0.009439,9.800401,0.170216,0.985407,-0.062718,0.006359,115.585564,0.901941,-0.431859,-0.730492,-0.081375
1820.000000,1820.000000,0.317871,-1.011719,-0.005371,1820.000000,-23.672104,12.596130,43.174744,1820.000000,18.345367,21.434036,-19.197083,17.231136,9.737170,114.758522,0.351389,-0.004984,-0.000399,-0.932723,-0.002496,-0.000209,0.080954,-0.006660,-0.001339,-7.028248,1.081548,0.826302,-30.564180,-4.890860,-0.970879,-9.821009,-1.481636,0.554969,0.462890,0.012114,0.001371,0.662693,-0.003618,-0.000979,-0.588703,0.005293,0.000225,17.231136,0.296227,0.955118,-0.362116,0.005156,9.737170,0.169129,0.985594,-0.063231,-0.000512,114.758522,0.908081,-0.418795,-0.827042,-0.096550
1830.000000,1830.000000,0.315430,-1.029785,-0.040039,1830.000000,-23.183823,6.370544,42.930603,1830.000000,18.045364,21.734039,-19.197083,16.871733,9.680445,113.858383,0.345962,-0.005427,-0.000443,-0.935409,-0.002685,-0.000189,0.072948,-0.008006,-0.001346,-6.537545,0.490704,-0.590845,-32.646778,-2.082598,2.808262,-10.964410,-1.143401,0.338235,0.475999,0.013109,0.000995,0.658049,-0.004644,-0.001026,-0.583435,0.005268,-0.000025,16.871733,0.290230,0.956957,-0.359404,0.002712,9.680445,0.168153,0.985761,-0.056726,0.006505,113.858383,0.914548,-0.404477,-0.900139,-0.073097
1840.000000,1840.000000,0.335937,-1.036621,-0.036621,1840.000000,-24.587631,2.281189,43.113708,1840.000000,18.045364,20.984039,-20.997070,16.510557,9.650253,112.908348,0.340324,-0.005638,-0.000211,-0.938156,-0.002748,-0.000063,0.063580,-0.009368,-0.001362,-7.873724,-1.336180,-1.826883,-32.385544,0.261234,2.343832,-11.560483,-0.596073,0.547328,0.488655,0.012656,-0.000453,0.652505,-0.005544,-0.000900,-0.579183,0.004252,-0.001016,16.510557,0.284192,0.958767,-0.361176,-0.001772,9.650253,0.167633,0.985849,-0.030191,0.026534,112.908348,0.921129,-0.389258,-0.950035,-0.049896
1850.000000,1850.000000,0.342773,-1.053222,-0.042969,1850.000000,-25.136948,-0.400543,44.334412,1850.000000,17.445374,20.984039,-20.997070,16.137760,9.638848,111.927040,0.334888,-0.005436,0.000202,-0.940755,-0.002598,0.000150,0.053208,-0.010372,-0.001004,-8.249186,-0.375461,0.960719,-30.677689,1.707855,1.446621,-11.069684,0.490799,1.086872,0.499229,0.010574,-0.002083,0.645772,-0.006733,-0.001189,-0.577710,0.001473,-0.002779,16.137760,0.277948,0.960596,-0.372797,-0.011621,9.638848,0.167437,0.985883,-0.011405,0.018786,111.927040,0.927660,-0.373426,-0.981308,-0.031273
1860.000000,1860.000000,0.348633,-1.031250,-0.036133,1860.000000,-26.296616,-1.804352,45.005798,1860.000000,17.295364,20.834045,-19.497070,15.759686,9.652288,110.932709,0.330001,-0.004887,0.000549,-0.943028,-0.002273,0.000325,0.042402,-0.010806,-0.000434,-9.145378,-0.896193,-0.520731,-27.776730,2.900959,1.193104,-11.104231,-0.034547,-0.525346,0.507129,0.007900,-0.002674,0.638691,-0.007081,-0.000348,-0.578701,-0.000991,-0.002463,15.759686,0.271603,0.962409,-0.378075,-0.005278,9.652288,0.167669,0.985843,0.013440,0.024845,110.932709,0.934001,-0.357271,-0.994331,-0.013023
1870.000000,1870.000000,0.357910,-1.052246,-0.045410,1870.000000,-27.395248,-2.292633,44.822693,1870.000000,17.295364,21.734039,-19.197083,15.385813,9.689376,109.938828,0.325886,-0.004114,0.000773,-0.944880,-0.001852,0.000421,0.031626,-0.010776,0.000030,-9.872433,-0.727055,0.169138,-24.141720,3.635010,0.734051,-11.911238,-0.807007,-0.772460,0.512741,0.005612,-0.002288,0.633041,-0.005650,0.001431,-0.579962,-0.001261,-0.000271,15.385813,0.265317,0.964161,-0.373873,0.004202,9.689376,0.168307,0.985735,0.037087,0.023647,109.938828,0.940057,-0.341017,-0.993881,0.000450
1880.000000,1880.000000,0.361816,-1.044922,-0.029297,1880.000000,-27.395248,-0.217438,43.052673,1880.000000,18.345367,21.734039,-19.197083,15.032734,9.738309,108.973221,0.322650,-0.003237,0.000877,-0.946279,-0.001400,0.000452,0.021270,-0.010356,0.000420,-9.449474,0.422958,1.150013,-18.272470,5.869249,2.234240,-14.122572,-2.211334,-1.404327,0.516889,0.004148,-0.001464,0.629636,-0.003405,0.002245,-0.579987,-0.000025,0.001237,15.032734,0.259371,0.965778,-0.353079,0.020794,9.738309,0.169148,0.985591,0.048933,0.011846,108.973221,0.945671,-0.325126,-0.965607,0.028275
1890.000000,1890.000000,0.338867,-1.052246,-0.042969,1890.000000,-28.799057,2.830505,42.442322,1890.000000,18.195374,22.184036,-18.897079,14.689567,9.811682,108.045776,0.320114,-0.002536,0.000701,-0.947307,-0.001028,0.000372,0.011650,-0.009620,0.000737,-10.369574,-0.920099,-1.343058,-11.902728,6.369742,0.500493,-14.983251,-0.860679,1.350656,0.520455,0.003566,-0.000582,0.628203,-0.001433,0.001971,-0.578350,0.001637,0.001661,14.689567,0.253582,0.967314,-0.343167,0.009912,9.811682,0.170410,0.985373,0.073373,0.024440,108.045776,0.950809,-0.309777,-0.927444,0.038162
1900.000000,1900.000000,0.312988,-1.047363,-0.032227,1900.000000,-29.897690,5.638123,41.343689,1900.000000,19.545364,22.334045,-19.797073,14.361137,9.904931,107.153412,0.317742,-0.002372,0.000164,-0.948173,-0.000865,0.000163,0.002908,-0.008742,0.000877,-10.880344,-0.510771,0.409328,-6.259471,5.643257,-0.726486,-16.181194,-1.197944,-0.337265,0.523995,0.003541,-0.000026,0.628065,-0.000138,0.001296,-0.575294,0.003055,0.001418,14.361137,0.248033,0.968752,-0.328429,0.014738,9.904931,0.172014,0.985095,0.093249,0.019876,107.153412,0.955518,-0.294931,-0.892365,0.035080
1910.000000,1910.000000,0.293457,-1.047851,-0.038574,1910.000000,-30.813217,7.041931,39.878845,1910.000000,19.545364,21.584045,-19.797073,14.050276,10.014688,106.281090,0.314961,-0.002781,-0.000410,-0.949092,-0.000919,-0.000054,-0.004875,-0.007783,0.000959,-11.131425,-0.251081,0.259690,-2.415179,3.844293,-1.798964,-17.566437,-1.385242,-0.187299,0.528030,0.004035,0.000494,0.627950,-0.000114,0.000023,-0.571719,0.003575,0.000520,14.050276,0.242773,0.970083,-0.310862,0.017568,10.014688,0.173901,0.984763,0.109757,0.016508,106.281090,0.959898,-0.280350,-0.872322,0.020042
1920.000000,1920.000000,0.262207,-1.037597,-0.035156,1920.000000,-31.301498,8.079529,38.352966,1920.000000,20.145370,21.584045,-19.797073,13.756263,10.135233,105.423828,0.311362,-0.003599,-0.000818,-0.950220,-0.001128,-0.000208,-0.011679,-0.006803,0.000980,-10.910415,0.221010,0.472091,0.761087,3.176265,-0.668028,-18.825903,-1.259466,0.125776,0.532945,0.004915,0.000880,0.626805,-0.001146,-0.001031,-0.568406,0.003313,-0.000262,13.756263,0.237792,0.971316,-0.294013,0.016849,10.135233,0.175972,0.984395,0.120544,0.010787,105.423828,0.963985,-0.265957,-0.857262,0.015060
1930.000000,1930.000000,0.258301,-1.028808,-0.041504,1930.000000,-30.996323,7.347107,37.315369,1930.000000,19.545364,20.684036,-18.897079,13.472775,10.257459,104.562958,0.306751,-0.004610,-0.001011,-0.951627,-0.001408,-0.000280,-0.017580,-0.005901,0.000902,-9.907992,1.002422,0.781412,1.971316,1.210229,-1.966036,-19.440083,-0.614180,0.645287,0.538716,0.005771,0.000856,0.624576,-0.002229,-0.001083,-0.565411,0.002995,-0.000318,13.472775,0.232983,0.972481,-0.283487,0.010526,10.257459,0.178072,0.984018,0.122226,0.001681,104.562958,0.967872,-0.251444,-0.860870,-0.003609
1940.000000,1940.000000,0.251953,-1.021484,-0.040527,1940.000000,-30.874252,6.980896,36.643982,1940.000000,19.545364,21.584045,-18.747070,13.194994,10.382145,103.701805,0.301282,-0.005470,-0.000859,-0.953265,-0.001638,-0.000230,-0.022688,-0.005108,0.000793,-9.128508,0.779485,-0.222938,3.421494,1.450178,0.239949,-19.578287,-0.138205,0.475975,0.544817,0.006100,0.000329,0.622025,-0.002551,-0.000322,-0.562370,0.003041,0.000047,13.194994,0.228266,0.973599,-0.277781,0.005706,10.382145,0.180213,0.983628,0.124686,0.002460,103.701805,0.971542,-0.236869,-0.861153,-0.000282
1950.000000,1950.000000,0.228516,-1.017578,-0.035645,1950.000000,-30.141830,6.126404,36.521912,1950.000000,20.145370,21.584045,-18.747070,12.916583,10.502334,102.835922,0.295103,-0.006179,-0.000709,-0.955083,-0.001817,-0.000179,-0.027046,-0.004359,0.000749,-7.796977,1.331531,0.552046,4.268381,0.846887,-0.603291,-19.105312,0.472975,0.611179,0.550668,0.005852,-0.000249,0.620022,-0.002003,0.000548,-0.558872,0.003498,0.000457,12.916583,0.223532,0.974697,-0.278411,-0.000629,10.502334,0.182276,0.983247,0.120189,-0.004498,102.835922,0.975010,-0.222160,-0.865883,-0.004730
1960.000000,1960.000000,0.215332,-1.027832,-0.025879,1960.000000,-28.310776,4.661560,36.827087,1960.000000,20.445374,21.434036,-17.547073,12.632421,10.606315,101.958916,0.288124,-0.006979,-0.000800,-0.957105,-0.002023,-0.000205,-0.030565,-0.003519,0.000840,-5.498305,2.298672,0.967141,4.443305,0.174924,-0.671963,-18.191681,0.913631,0.440657,0.556583,0.005915,0.000063,0.618757,-0.001264,0.000739,-0.554396,0.004476,0.000978,12.632421,0.218695,0.975793,-0.284163,-0.005752,10.606315,0.184060,0.982915,0.103981,-0.016208,101.958916,0.978296,-0.207210,-0.877007,-0.011124
1970.000000,1970.000000,0.213379,-1.033691,-0.021484,1970.000000,-24.343491,1.426697,36.155701,1970.000000,20.440491,20.234039,-18.147079,12.351236,10.672311,101.052246,0.280337,-0.007788,-0.000809,-0.959330,-0.002225,-0.000202,-0.033128,-0.002564,0.000955,-1.330902,4.167403,1.868731,2.893466,-1.549839,-1.724763,-18.221109,-0.029428,-0.943060,0.563149,0.006566,0.000651,0.617630,-0.001127,0.000137,-0.548997,0.005399,0.000923,12.351236,0.213904,0.976855,-0.281184,0.002978,10.672311,0.185192,0.982702,0.065996,-0.037985,101.052246,0.981453,-0.191704,-0.906670,-0.029663
1980.000000,1980.000000,0.209473,-1.041504,-0.021973,1980.000000,-20.742416,-0.339508,36.949158,1980.000000,20.740494,20.229156,-18.146591,12.057910,10.703525,100.129730,0.271948,-0.008389,-0.000601,-0.961684,-0.002355,-0.000130,-0.034746,-0.001617,0.000946,2.136903,3.467805,-0.699597,2.869303,-0.024164,1.525675,-16.777998,1.443111,1.472540,0.570347,0.007199,0.000633,0.615619,-0.002010,-0.000883,-0.543798,0.005198,-0.000201,12.057910,0.208900,0.977937,-0.293326,-0.012142,10.703525,0.185727,0.982601,0.031214,-0.034782,100.129730,0.984412,-0.175878,-0.922516,-0.015846
1990.000000,1990.000000,0.174316,-1.060058,-0.018066,1990.000000,-17.385483,-2.475739,36.582947,1990.000000,21.940491,20.529160,-16.946594,11.763354,10.702034,99.186722,0.262962,-0.008986,-0.000598,-0.964152,-0.002468,-0.000113,-0.035524,-0.000779,0.000838,5.068255,2.931352,-0.536453,2.482405,-0.386897,-0.362733,-16.503458,0.274540,-1.168571,0.578371,0.008023,0.000825,0.612595,-0.003025,-0.001015,-0.538716,0.005082,-0.000116,11.763354,0.203870,0.978998,-0.294556,-0.001229,10.702034,0.185702,0.982606,-0.001491,-0.032704,99.186722,0.987173,-0.159652,-0.943008,-0.020493
2000.000000,2000.000000,0.165527,-1.073730,0.001953,2000.000000,-13.540268,-3.513336,37.254333,2000.000000,19.990494,21.429153,-18.146591,11.456421,10.662657,98.233795,0.253114,-0.009848,-0.000861,-0.966788,-0.002636,-0.000168,-0.035424,0.000100,0.000879,8.198282,3.130027,0.198675,3.169913,0.687508,1.074405,-15.197390,1.306068,1.031528,0.586469,0.008099,0.000075,0.609744,-0.002850,0.000174,-0.533166,0.005550,0.000468,11.456421,0.198623,0.980076,-0.306933,-0.012378,10.662657,0.185026,0.982734,-0.039377,-0.037887,98.233795,0.989692,-0.143213,-0.952927,-0.009918
2010.000000,2010.000000,0.171387,-1.062500,0.023437,2010.000000,-12.380600,-5.100250,39.207458,2010.000000,20.290482,20.079163,-17.396591,11.123940,10.611099,97.268341,0.242526,-0.010588,-0.000741,-0.969543,-0.002755,-0.000120,-0.034167,0.001257,0.001157,8.462360,0.264078,-2.865949,3.261543,0.091630,-0.595878,-12.718904,2.478485,1.172417,0.592808,0.006339,-0.001760,0.607910,-0.001834,0.001016,-0.528227,0.004939,-0.000611,11.123940,0.192932,0.981212,-0.332480,-0.025547,10.611099,0.184142,0.982900,-0.051558,-0.012180,97.268341,0.991965,-0.126517,-0.965454,-0.012527
2020.000000,2020.000000,0.158691,-1.049804,0.025879,2020.000000,-11.587143,-6.626129,39.817810,2020.000000,20.290482,20.079163,-17.696594,10.779288,10.549647,96.294334,0.231667,-0.010859,-0.000270,-0.972282,-0.002739,0.000016,-0.031588,0.002579,0.001322,8.321711,-0.140650,-0.404728,3.391440,0.129897,0.038268,-11.687509,1.031396,-1.447089,0.597394,0.004585,-0.001753,0.606507,-0.001403,0.000431,-0.524662,0.003565,-0.001374,10.779288,0.187026,0.982355,-0.344652,-0.012172,10.549647,0.183087,0.983097,-0.061452,-0.009894,96.294334,0.993972,-0.109636,-0.974007,-0.008553
2030.000000,2030.000000,0.146484,-1.062500,0.031738,2030.000000,-10.305405,-7.541656,40.611267,2030.000000,20.290482,20.079163,-17.696594,10.420878,10.472367,95.319931,0.220754,-0.010914,-0.000055,-0.974932,-0.002650,0.000089,-0.027845,0.003743,0.001164,8.628636,0.306926,0.447576,4.081305,0.689865,0.559968,-10.524494,1.163014,0.131618,0.600930,0.003537,-0.001049,0.604964,-0.001543,-0.000140,-0.522399,0.002263,-0.001303,10.420878,0.180878,0.983506,-0.358410,-0.013758,10.472367,0.181761,0.983343,-0.077280,-0.015828,95.319931,0.995692,-0.092717,-0.974403,-0.000397
2040.000000,2040.000000,0.153320,-1.052734,0.023926,2040.000000,-7.741928,-7.785797,40.855408,2040.000000,21.790482,20.529160,-17.696594,10.054491,10.366076,94.352730,0.209914,-0.010840,0.000074,-0.977443,-0.002511,0.000139,-0.023278,0.004568,0.000825,10.102899,1.474262,1.167336,5.339303,1.257998,0.568133,-9.946039,0.578455,-0.584559,0.603929,0.002999,-0.000538,0.603245,-0.001719,-0.000176,-0.520927,0.001472,-0.000790,10.054491,0.174585,0.984642,-0.366387,-0.007977,10.366076,0.179937,0.983678,-0.106292,-0.029012,94.352730,0.997116,-0.075896,-0.967201,0.007202
2050.000000,2050.000000,0.137695,-1.069336,0.016602,2050.000000,-4.262924,-8.762360,41.099548,2050.000000,20.140488,19.029160,-15.896591,9.680642,10.221981,93.384460,0.199348,-0.010565,0.000274,-0.979757,-0.002314,0.000197,-0.018342,0.004936,0.000368,12.289378,2.186480,0.712217,5.769571,0.430268,-0.827730,-9.379183,0.566856,-0.011599,0.607309,0.003380,0.000381,0.601365,-0.001880,-0.000161,-0.519169,0.001758,0.000286,9.680642,0.168156,0.985760,-0.373849,-0.007462,10.221981,0.177462,0.984128,-0.144094,-0.037803,93.384460,0.998256,-0.059036,-0.968269,-0.001068
2060.000000,2060.000000,0.141113,-1.094238,0.021484,2060.000000,-2.737045,-8.213043,41.160583,2060.000000,20.140488,17.679153,-18.146591,9.301689,10.060006,92.429657,0.189107,-0.010241,0.000324,-0.981865,-0.002108,0.000206,-0.013403,0.004939,0.000003,12.375266,0.085888,-2.100592,7.601024,1.831453,1.401185,-9.000230,0.378953,-0.187903,0.611091,0.003782,0.000403,0.598682,-0.002683,-0.000802,-0.517830,0.001339,-0.000419,9.301689,0.161633,0.986851,-0.378953,-0.005104,10.060006,0.174679,0.984625,-0.161975,-0.017880,92.429657,0.999101,-0.042393,-0.954803,0.013466
2070.000000,2070.000000,0.124023,-1.094726,0.019043,2070.000000,-1.089096,-8.029938,41.587830,2070.000000,22.240494,17.679153,-18.146591,8.914536,9.879518,91.484917,0.179174,-0.009933,0.000308,-0.983780,-0.001915,0.000193,-0.008618,0.004785,-0.000153,12.523854,0.148588,0.062700,8.897739,1.296715,-0.534738,-8.269191,0.731039,0.352086,0.615419,0.004327,0.000545,0.593454,-0.005227,-0.002544,-0.518721,-0.000892,-0.002231,8.914536,0.154961,0.987921,-0.387154,-0.008201,9.879518,0.171577,0.985171,-0.180489,-0.018514,91.484917,0.999664,-0.025914,-0.944740,0.010063
2080.000000,2080.000000,0.134766,-1.103027,0.022949,2080.000000,1.165390,-7.602692,40.611267,2080.000000,20.740494,18.879166,-17.546585,8.533575,9.675251,90.552513,0.169624,-0.009551,0.000382,-0.985501,-0.001721,0.000194,-0.004081,0.004537,-0.000248,13.192663,0.668809,0.520221,10.284112,1.386373,0.089657,-8.911863,-0.642673,-1.373712,0.620462,0.005044,0.000717,0.585978,-0.007476,-0.002249,-0.521206,-0.002485,-0.001593,8.533575,0.148389,0.988929,-0.380960,0.006193,9.675251,0.168064,0.985776,-0.204267,-0.023778,90.552513,0.999954,-0.009643,-0.932404,0.012337
2090.000000,2090.000000,0.114746,-1.108886,0.026367,2090.000000,1.043320,-7.236481,39.024353,2090.000000,20.740494,19.029160,-17.396591,8.165239,9.471314,89.632729,0.160548,-0.009075,0.000476,-0.987028,-0.001527,0.000193,0.000178,0.004259,-0.000279,11.481476,-1.711187,-2.379996,11.455365,1.171253,-0.215119,-10.050046,-1.138183,-0.495510,0.624909,0.004447,-0.000597,0.579062,-0.006917,0.000559,-0.523618,-0.002412,0.000073,8.165239,0.142028,0.989863,-0.368336,0.012625,9.471314,0.164554,0.986368,-0.203937,0.000330,89.632729,0.999979,0.006410,-0.919785,0.012619
2100.000000,2100.000000,0.101074,-1.104980,0.018066,2100.000000,1.104355,-8.335114,38.352966,2100.000000,22.090485,19.029160,-17.396591,7.800725,9.266315,88.711899,0.151820,-0.008729,0.000347,-0.988400,-0.001372,0.000156,0.004098,0.003920,-0.000339,10.047544,-1.433932,0.277255,11.082560,-0.372806,-1.544059,-10.177736,-0.127690,1.010492,0.628404,0.003495,-0.000952,0.573870,-0.005192,0.001725,-0.525149,-0.001531,0.000881,7.800725,0.135728,0.990746,-0.364514,0.003821,9.266315,0.161024,0.986951,-0.205000,-0.001063,88.711899,0.999747,0.022480,-0.920830,-0.001045
2110.000000,2110.000000,0.113281,-1.083008,0.015625,2110.000000,0.982285,-9.738922,37.498474,2110.000000,22.240494,18.279160,-18.446594,7.442150,9.062658,87.786659,0.143423,-0.008397,0.000332,-0.989633,-0.001233,0.000139,0.007516,0.003419,-0.000501,8.522414,-1.525129,-0.091197,10.407660,-0.674900,-0.302094,-10.431259,-0.253523,-0.125833,0.631994,0.003590,0.000095,0.569199,-0.004671,0.000521,-0.525924,-0.000775,0.000756,7.442150,0.129525,0.991576,-0.358575,0.005939,9.062658,0.157514,0.987517,-0.203656,0.001344,87.786659,0.999254,0.038620,-0.925240,-0.004410
