icmT,accT,accX,accY,accZ,gyrT,gyrX,gyrY,gyrZ,magT,magX,magY,magZ,roll,pitch,yaw,accX_,accX_1,accX_2,accY_,accY_1,accY_2,accZ_,accZ_1,accZ_2,gyrX_,gyrX_1,gyrX_2,gyrY_,gyrY_1,gyrY_2,gyrZ_,gyrZ_1,gyrZ_2,magX_,magX_1,magX_2,magY_,magY_1,magY_2,magZ_,magZ_1,magZ_2,roll_,roll_s,roll_c,roll_1,roll_2,pitch_,pitch_s,pitch_c,pitch_1,pitch_2,yaw_,yaw_s,yaw_c,yaw_1,yaw_2
0.000000,0.000000,0.256836,-1.009277,0.153809,0.000000,0.371933,1.243591,-0.827789,0.000000,-7.314362,8.786575,-31.982727,0.000000,0.000000,0.000000,0.000000,0.000000,0.000000,0.000000,0.000000,0.000000,0.000000,0.000000,0.000000,0.000000,0.000000,0.000000,0.000000,0.000000,0.000000,0.000000,0.000000,0.000000,0.000000,0.000000,0.000000,0.000000,0.000000,0.000000,0.000000,0.000000,0.000000,0.000000,0.000000,0.000000,0.000000,0.000000,0.000000,0.000000,0.000000,0.000000,0.000000,0.000000,0.000000,0.000000,0.000000,0.000000
10.000000,10.000000,0.268555,-1.001953,0.161621,10.000000,0.188828,0.267029,-0.461578,10.000000,-7.314362,11.336578,-31.232727,0.000000,0.000000,0.000000,0.000000,0.000000,0.000000,0.000000,0.000000,0.000000,0.000000,0.000000,0.000000,0.000000,0.000000,0.000000,0.000000,0.000000,0.000000,0.000000,0.000000,0.000000,0.000000,0.000000,0.000000,0.000000,0.000000,0.000000,0.000000,0.000000,0.000000,0.000000,0.000000,0.000000,0.000000,0.000000,0.000000,0.000000,0.000000,0.000000,0.000000,0.000000,0.000000,0.000000,0.000000,0.000000
20.000000,20.000000,0.265137,-0.996094,0.161133,20.000000,0.799179,0.205994,-0.095367,20.000000,-7.164368,11.336578,-31.232727,3.600935,-3.607832,2.060426,0.000000,0.000000,0.000000,0.000000,0.000000,0.000000,0.000000,0.000000,0.000000,0.764449,0.764449,0.764449,0.197042,0.197042,0.197042,-0.091223,-0.091223,-0.091223,-0.210778,-0.210778,-0.210778,0.333526,0.333526,0.333526,-0.918876,-0.918876,-0.918876,3.600935,0.062807,0.998026,3.600935,3.600935,-3.607832,-0.062927,0.998018,-3.607832,-3.607832,2.060426,0.035953,0.999353,2.060426,2.060426
30.000000,30.000000,0.255859,-0.991211,0.164551,30.000000,0.432968,-0.522614,0.083923,30.000000,-6.564362,11.486588,-31.382721,7.128093,-7.139918,4.103059,0.000000,0.000000,0.000000,0.000000,0.000000,0.000000,0.000000,0.000000,0.000000,0.346267,-0.418182,-1.182631,-0.517400,-0.714442,-0.911484,0.088377,0.179600,0.270823,-0.206824,0.003954,0.214732,0.334358,0.000832,-0.332693,-0.919472,-0.000596,0.918280,7.128093,0.124088,0.992271,3.527159,-0.073776,-7.139918,-0.124293,0.992246,-3.532086,0.075746,4.103059,0.071551,0.997437,2.042634,-0.017792
40.000000,40.000000,0.265137,-1.000000,0.166992,40.000000,0.310898,-0.705719,0.267029,40.000000,-5.964371,11.636581,-32.282715,10.582914,-10.601362,6.139778,0.000000,0.000000,0.000000,0.000000,0.000000,0.000000,0.000000,0.000000,0.000000,0.312629,-0.033638,0.384544,-0.647346,-0.129946,0.584496,0.256022,0.167645,-0.011955,-0.200818,0.006006,0.002052,0.334881,0.000523,-0.000309,-0.920612,-0.001140,-0.000544,10.582914,0.183658,0.982990,3.454821,-0.072338,-10.601362,-0.183975,0.982931,-3.461444,0.070642,6.139778,0.106954,0.994264,2.036719,-0.005915
50.000000,50.000000,0.268066,-1.002929,0.161621,50.000000,0.066757,-0.461578,0.633240,50.000000,-7.764359,9.986588,-31.682724,10.660063,-10.576379,8.185445,0.251465,0.251465,0.251465,-0.955091,-0.955091,-0.955091,0.156736,0.156736,0.156736,-0.069627,-0.382256,-0.348618,-0.355119,0.292228,0.422174,0.583594,0.327572,0.159927,-0.197453,0.003365,-0.002641,0.332639,-0.002242,-0.002765,-0.922152,-0.001539,-0.000399,10.660063,0.184982,0.982742,0.077148,-3.377673,-10.576379,-0.183546,0.983011,0.024983,3.486428,8.185445,0.142377,0.989812,2.045667,0.008948
60.000000,60.000000,0.289062,-0.982422,0.155273,60.000000,0.127792,-0.156403,0.328064,60.000000,-8.064362,9.986588,-31.982727,10.740027,-10.552323,10.193962,0.252613,0.001148,-0.250317,-0.954819,0.000272,0.955363,0.156546,-0.000190,-0.156926,-0.010440,0.059187,0.441443,-0.028012,0.327106,0.034878,0.238899,-0.344695,-0.672267,-0.199432,-0.001979,-0.005344,0.327133,-0.005506,-0.003264,-0.923694,-0.001543,-0.000003,10.740027,0.186353,0.982483,0.079965,0.002816,-10.552323,-0.183133,0.983088,0.024055,-0.000928,10.193962,0.176981,0.984214,2.008517,-0.037149
70.000000,70.000000,0.294434,-0.995117,0.146973,70.000000,0.249863,0.083923,0.022888,70.000000,-8.064362,10.886581,-31.832718,10.824308,-10.529047,12.169093,0.255085,0.002472,0.001324,-0.954302,0.000518,0.000246,0.155693,-0.000853,-0.000663,0.102138,0.112577,0.053390,0.209356,0.237368,-0.089738,-0.077392,-0.316291,0.028405,-0.204399,-0.004967,-0.002988,0.321262,-0.005871,-0.000364,-0.924668,-0.000974,0.000568,10.824308,0.187798,0.982208,0.084281,0.004316,-10.529047,-0.182734,0.983162,0.023276,-0.000779,12.169093,0.210798,0.977530,1.975131,-0.033386
80.000000,80.000000,0.280273,-0.995117,0.161621,80.000000,0.494003,0.328064,-0.034332,80.000000,-7.464371,10.886581,-31.832718,10.910781,-10.507442,14.112227,0.257891,0.002806,0.000335,-0.953727,0.000574,0.000057,0.154585,-0.001108,-0.000255,0.321523,0.219385,0.106808,0.429400,0.220044,-0.017324,-0.129318,-0.051926,0.264365,-0.209236,-0.004838,0.000130,0.317399,-0.003863,0.002008,-0.924920,-0.000252,0.000722,10.910781,0.189280,0.981923,0.086473,0.002192,-10.507442,-0.182363,0.983231,0.021605,-0.001671,14.112227,0.243822,0.969820,1.943134,-0.031997
90.000000,90.000000,0.279785,-0.999511,0.160644,90.000000,-0.173569,1.182556,-0.339508,90.000000,-7.764359,12.236588,-31.382721,11.001152,-10.478863,16.029602,0.260118,0.002227,-0.000579,-0.953254,0.000473,-0.000101,0.153771,-0.000814,0.000294,-0.351053,-0.672576,-0.891961,1.212940,0.783540,0.563496,-0.413520,-0.284202,-0.232276,-0.212866,-0.003629,0.001208,0.316303,-0.001096,0.002767,-0.924468,0.000453,0.000705,11.001152,0.190829,0.981623,0.090371,0.003899,-10.478863,-0.181873,0.983322,0.028579,0.006973,16.029602,0.276134,0.961119,1.917375,-0.025760
100.000000,100.000000,0.276367,-1.001465,0.159180,100.000000,0.249863,0.572205,-0.278473,100.000000,-7.764359,12.236588,-32.432724,11.090933,-10.454496,17.907366,0.261649,0.001530,-0.000697,-0.952914,0.000340,-0.000133,0.153282,-0.000489,0.000325,0.078475,0.429528,1.102104,0.524091,-0.688849,-1.472389,-0.321699,0.091821,0.376023,-0.215500,-0.002634,0.000995,0.318058,0.001754,0.002850,-0.923255,0.001213,0.000760,11.090933,0.192367,0.981323,0.089781,-0.000590,-10.454496,-0.181455,0.983399,0.024366,-0.004212,17.907366,0.307479,0.951555,1.877764,-0.039611
110.000000,110.000000,0.270996,-1.016601,0.162598,110.000000,0.494003,0.999451,-0.461578,110.000000,-6.864365,12.236588,-32.432724,11.181768,-10.432648,19.755627,0.262540,0.000891,-0.000639,-0.952723,0.000191,-0.000149,0.152943,-0.000339,0.000149,0.299687,0.221212,-0.208316,0.884337,0.360246,1.049095,-0.470001,-0.148301,-0.240122,-0.216833,-0.001333,0.001302,0.321529,0.003471,0.001717,-0.921739,0.001516,0.000303,11.181768,0.193922,0.981017,0.090836,0.001055,-10.432648,-0.181080,0.983468,0.021849,-0.002518,19.755627,0.338009,0.941143,1.848261,-0.029503
120.000000,120.000000,0.259277,-0.986816,0.159180,120.000000,0.494003,0.144958,-0.034332,120.000000,-6.864365,10.586578,-31.532715,11.266888,-10.410990,21.560122,0.262789,0.000248,-0.000643,-0.952689,0.000034,-0.000157,0.152727,-0.000215,0.000124,0.267427,-0.032260,-0.253472,-0.015427,-0.899763,-1.260009,-0.020089,0.449911,0.598213,-0.216428,0.000405,0.001737,0.324836,0.003308,-0.000163,-0.920674,0.001065,-0.000450,11.266888,0.195379,0.980728,0.085119,-0.005716,-10.410990,-0.180708,0.983537,0.021658,-0.000191,21.560122,0.367477,0.930032,1.804495,-0.043766
130.000000,130.000000,0.268555,-0.987793,0.167480,130.000000,0.249863,0.205994,0.267029,130.000000,-6.864365,11.636581,-32.282715,11.347114,-10.387337,23.328552,0.262592,-0.000197,-0.000445,-0.952747,-0.000058,-0.000092,0.152706,-0.000022,0.000194,0.003368,-0.264059,-0.231799,0.037111,0.052538,0.952301,0.271230,0.291320,-0.158592,-0.214795,0.001633,0.001228,0.326900,0.002064,-0.001244,-0.920326,0.000348,-0.000717,11.347114,0.196752,0.980453,0.080226,-0.004893,-10.387337,-0.180302,0.983611,0.023653,0.001995,23.328552,0.396003,0.918249,1.768431,-0.036064
140.000000,140.000000,0.269043,-1.001465,0.158203,140.000000,0.738144,-0.461578,0.328064,140.000000,-7.614365,11.636581,-32.282715,11.424708,-10.369098,25.053791,0.262229,-0.000363,-0.000166,-0.952823,-0.000077,-0.000019,0.152851,0.000145,0.000167,0.462342,0.458973,0.723032,-0.611902,-0.649014,-0.701551,0.306874,0.035643,-0.255676,-0.212860,0.001936,0.000303,0.328186,0.001286,-0.000777,-0.920318,0.000008,-0.000340,11.424708,0.198080,0.980186,0.077595,-0.002631,-10.369098,-0.179989,0.983669,0.018239,-0.005414,25.053791,0.423469,0.905911,1.725239,-0.043192
150.000000,150.000000,0.267578,-1.002441,0.171387,150.000000,0.860214,-0.461578,0.083923,150.000000,-7.164368,11.636581,-31.232727,11.502617,-10.352672,26.743872,0.261782,-0.000447,-0.000085,-0.952910,-0.000086,-0.000010,0.153080,0.000229,0.000084,0.530247,0.067906,-0.391067,-0.564860,0.047042,0.696056,0.046413,-0.260461,-0.296104,-0.211416,0.001443,-0.000492,0.329437,0.001252,-0.000035,-0.920203,0.000114,0.000106,11.502617,0.199413,0.979916,0.077909,0.000314,-10.352672,-0.179707,0.983720,0.016426,-0.001813,26.743872,0.450003,0.893027,1.690081,-0.035158
160.000000,160.000000,0.267090,-1.005371,0.165527,160.000000,0.982285,-0.766754,0.144958,160.000000,-7.164368,10.736588,-30.932724,11.577723,-10.338156,28.397219,0.261230,-0.000552,-0.000104,-0.953006,-0.000096,-0.000010,0.153424,0.000344,0.000115,0.590376,0.060128,-0.007777,-0.811597,-0.246737,-0.293779,0.099836,0.053423,0.313884,-0.210593,0.000823,-0.000621,0.330547,0.001110,-0.000142,-0.919994,0.000209,0.000095,11.577723,0.200697,0.979653,0.075106,-0.002803,-10.338156,-0.179457,0.983766,0.014516,-0.001910,28.397219,0.475581,0.879672,1.653347,-0.036734
170.000000,170.000000,0.267090,-1.005371,0.168457,170.000000,0.432968,-0.461578,0.389099,170.000000,-6.264359,10.736588,-30.932724,11.648190,-10.319040,30.020124,0.260593,-0.000637,-0.000086,-0.953110,-0.000104,-0.000008,0.153862,0.000438,0.000093,0.000950,-0.589425,-0.649554,-0.450461,0.361136,0.607873,0.323488,0.223652,0.170229,-0.209752,0.000841,0.000018,0.330932,0.000385,-0.000725,-0.920048,-0.000054,-0.000263,11.648190,0.201902,0.979406,0.070467,-0.004639,-10.319040,-0.179129,0.983826,0.019115,0.004600,30.020124,0.500304,0.865850,1.622906,-0.030441
180.000000,180.000000,0.270996,-0.991211,0.170410,180.000000,0.188828,-0.217438,0.328064,180.000000,-6.714371,11.336578,-31.832718,11.717110,-10.298501,31.611330,0.259960,-0.000633,0.000004,-0.953199,-0.000089,0.000014,0.154377,0.000515,0.000078,-0.246449,-0.247400,0.342026,-0.176711,0.273750,-0.087386,0.234988,-0.088500,-0.312152,-0.208176,0.001577,0.000735,0.330619,-0.000314,-0.000698,-0.920518,-0.000471,-0.000417,11.717110,0.203080,0.979162,0.068920,-0.001547,-10.298501,-0.178776,0.983890,0.020539,0.001424,31.611330,0.524154,0.851623,1.591206,-0.031700
190.000000,190.000000,0.279297,-0.992187,0.157227,190.000000,0.371933,0.694275,0.267029,190.000000,-7.164368,10.286575,-31.682724,11.784739,-10.280787,33.177322,0.259513,-0.000447,0.000185,-0.953234,-0.000035,0.000054,0.154912,0.000535,0.000019,-0.063203,0.183246,0.430646,0.712993,0.889704,0.615954,0.153125,-0.081863,0.006637,-0.206285,0.001891,0.000314,0.329640,-0.000979,-0.000665,-0.921295,-0.000776,-0.000306,11.784739,0.204235,0.978922,0.067629,-0.001291,-10.280787,-0.178472,0.983945,0.017714,-0.002826,33.177322,0.547232,0.836981,1.565992,-0.025213
200.000000,200.000000,0.257812,-1.005859,0.169922,200.000000,-0.356674,1.304626,0.450134,200.000000,-7.164368,12.986588,-31.682724,11.848871,-10.256811,34.716328,0.259204,-0.000308,0.000139,-0.953245,-0.000011,0.000024,0.155361,0.000449,-0.000086,-0.767392,-0.704188,-0.887434,1.236091,0.523099,-0.366606,0.311174,0.158049,0.239913,-0.204958,0.001327,-0.000564,0.328751,-0.000889,0.000090,-0.921908,-0.000614,0.000163,11.848871,0.205331,0.978693,0.064133,-0.003496,-10.256811,-0.178061,0.984020,0.023976,0.006263,34.716328,0.569514,0.821982,1.539005,-0.026987
210.000000,210.000000,0.281738,-1.001953,0.158691,210.000000,-0.295639,1.487732,0.267029,210.000000,-6.414368,12.986588,-31.682724,11.913154,-10.234327,36.225990,0.258888,-0.000316,-0.000008,-0.953272,-0.000027,-0.000017,0.155719,0.000358,-0.000090,-0.653480,0.113912,0.818100,1.301364,0.065272,-0.457826,0.104313,-0.206861,-0.364910,-0.203789,0.001170,-0.000157,0.330266,0.001515,0.002404,-0.921626,0.000282,0.000896,11.913154,0.206429,0.978462,0.064282,0.000150,-10.234327,-0.177674,0.984089,0.022484,-0.001493,36.225990,0.590972,0.806692,1.509663,-0.029343
220.000000,220.000000,0.278320,-1.010254,0.154785,220.000000,-0.295639,0.755310,0.328064,220.000000,-8.214371,11.036575,-32.432724,11.975344,-10.212481,37.699005,0.258708,-0.000180,0.000136,-0.953295,-0.000022,0.000005,0.155883,0.000164,-0.000194,-0.605167,0.048313,-0.065599,0.480427,-0.820936,-0.886209,0.148177,0.043864,0.250725,-0.202872,0.000917,-0.000253,0.333469,0.003202,0.001687,-0.920675,0.000952,0.000669,11.975344,0.207491,0.978237,0.062190,-0.002092,-10.212481,-0.177299,0.984157,0.021847,-0.000637,37.699005,0.611513,0.791234,1.473015,-0.036648
230.000000,230.000000,0.279785,-0.999511,0.160644,230.000000,0.249863,0.938416,0.450134,230.000000,-8.214371,11.786575,-30.932724,12.035151,-10.196317,39.147144,0.258759,0.000051,0.000231,-0.953295,-0.000000,0.000022,0.155798,-0.000085,-0.000249,-0.036879,0.568288,0.519975,0.603216,0.122789,0.943725,0.246134,0.097957,0.054093,-0.203902,-0.001030,-0.001947,0.335763,0.002294,-0.000908,-0.919612,0.001062,0.000111,12.035151,0.208512,0.978020,0.059807,-0.002383,-10.196317,-0.177021,0.984207,0.016164,-0.005683,39.147144,0.631314,0.775527,1.448139,-0.024876
240.000000,240.000000,0.261719,-0.990722,0.154297,240.000000,0.616074,0.511169,0.144958,240.000000,-7.464371,11.786575,-30.932724,12.096906,-10.183794,40.567230,0.258897,0.000138,0.000087,-0.953295,-0.000000,-0.000000,0.155567,-0.000232,-0.000146,0.311731,0.348610,-0.219678,0.129458,-0.473758,-0.596547,-0.073846,-0.319981,-0.417938,-0.206955,-0.003053,-0.002023,0.337412,0.001649,-0.000645,-0.918326,0.001286,0.000224,12.096906,0.209566,0.977795,0.061755,0.001948,-10.183794,-0.176806,0.984246,0.012523,-0.003641,40.567230,0.650340,0.759643,1.420086,-0.028053
250.000000,250.000000,0.282715,-1.002441,0.160156,250.000000,0.005722,0.022888,0.755310,250.000000,-7.464371,10.286575,-31.382721,12.151595,-10.165160,41.959270,0.259035,0.000138,0.000001,-0.953310,-0.000015,-0.000014,0.155245,-0.000322,-0.000090,-0.304602,-0.616333,-0.964942,-0.362891,-0.492349,-0.018591,0.509399,0.583246,0.903227,-0.210382,-0.003427,-0.000374,0.338375,0.000962,-0.000687,-0.917192,0.001134,-0.000153,12.151595,0.210499,0.977594,0.054689,-0.007066,-10.165160,-0.176486,0.984303,0.018634,0.006111,41.959270,0.668602,0.743620,1.392040,-0.028046
260.000000,260.000000,0.287598,-0.991211,0.179687,260.000000,0.432968,-0.217438,-0.095367,260.000000,-7.464371,12.236588,-31.382721,12.213894,-10.150838,43.325165,0.259349,0.000314,0.000176,-0.953260,0.000050,0.000064,0.155025,-0.000220,0.000102,0.125127,0.429729,1.046061,-0.574827,-0.211936,0.280413,-0.356407,-0.865807,-1.449052,-0.213307,-0.002925,0.000502,0.338142,-0.000233,-0.001195,-0.916602,0.000590,-0.000544,12.213894,0.211562,0.977365,0.062299,0.007609,-10.150838,-0.176240,0.984347,0.014322,-0.004312,43.325165,0.686138,0.727471,1.365894,-0.026146
270.000000,270.000000,0.272461,-0.996582,0.169922,270.000000,0.066757,-0.095367,-0.461578,270.000000,-5.964371,12.236588,-31.382721,12.279196,-10.133374,44.667252,0.259893,0.000544,0.000230,-0.953094,0.000166,0.000117,0.155135,0.000111,0.000331,-0.241131,-0.366258,-0.795986,-0.419924,0.154903,0.366840,-0.683839,-0.327432,0.538374,-0.214684,-0.001377,0.001548,0.338383,0.000241,0.000474,-0.916192,0.000411,-0.000179,12.279196,0.212676,0.977123,0.065302,0.003003,-10.133374,-0.175940,0.984401,0.017464,0.003141,44.667252,0.702988,0.711201,1.342087,-0.023808
280.000000,280.000000,0.275391,-0.998047,0.164551,280.000000,0.310898,-0.034332,-0.034332,280.000000,-6.564362,11.786575,-32.732727,12.339688,-10.119079,45.982460,0.260449,0.000555,0.000011,-0.952889,0.000205,0.000039,0.155465,0.000330,0.000219,0.008491,0.249622,0.615880,-0.334987,0.084937,-0.069966,-0.221872,0.461968,0.789400,-0.213390,0.001294,0.002671,0.339547,0.001163,0.000922,-0.916064,0.000128,-0.000283,12.339688,0.213707,0.976898,0.060493,-0.004809,-10.119079,-0.175695,0.984445,0.014296,-0.003168,45.982460,0.719127,0.694879,1.315208,-0.026878
290.000000,290.000000,0.266602,-0.986328,0.165039,290.000000,0.188828,-0.095367,-0.217438,290.000000,-6.564362,9.836578,-31.232727,12.401311,-10.104326,47.267319,0.260887,0.000439,-0.000116,-0.952710,0.000179,-0.000027,0.155823,0.000358,0.000028,-0.113439,-0.121931,-0.371553,-0.372772,-0.037785,-0.122721,-0.382172,-0.160300,-0.622268,-0.210299,0.003091,0.001796,0.339521,-0.000026,-0.001189,-0.916788,-0.000724,-0.000852,12.401311,0.214758,0.976667,0.061623,0.001130,-10.104326,-0.175441,0.984490,0.014752,0.000457,47.267319,0.734528,0.678579,1.284859,-0.030350
300.000000,300.000000,0.257812,-0.995605,0.168945,300.000000,0.494003,0.205994,0.022888,300.000000,-5.964371,9.836578,-31.232727,12.459607,-10.093335,48.524025,0.261089,0.000201,-0.000238,-0.952592,0.000118,-0.000060,0.156210,0.000387,0.000029,0.184105,0.297544,0.419475,-0.059287,0.313484,0.351269,-0.122368,0.259804,0.420104,-0.206670,0.003629,0.000539,0.336772,-0.002748,-0.002723,-0.918625,-0.001837,-0.001113,12.459607,0.215751,0.976448,0.058296,-0.003326,-10.093335,-0.175252,0.984524,0.010991,-0.003761,48.524025,0.749233,0.662306,1.256706,-0.028152
310.000000,310.000000,0.267090,-0.998047,0.163086,310.000000,0.249863,0.022888,-0.461578,310.000000,-7.614365,10.286575,-31.682724,12.521359,-10.080659,49.747883,0.260967,-0.000122,-0.000323,-0.952558,0.000034,-0.000084,0.156620,0.000410,0.000024,-0.069790,-0.253895,-0.551439,-0.235646,-0.176359,-0.489843,-0.577486,-0.455119,-0.714923,-0.203400,0.003270,-0.000359,0.331866,-0.004906,-0.002158,-0.921137,-0.002512,-0.000675,12.521359,0.216804,0.976215,0.061752,0.003456,-10.080659,-0.175034,0.984562,0.012676,0.001685,49.747883,0.763209,0.646152,1.223858,-0.032848
320.000000,320.000000,0.272949,-0.992187,0.162598,320.000000,0.432968,0.022888,-0.095367,320.000000,-7.614365,10.886581,-30.482727,12.577975,-10.070430,50.943684,0.260692,-0.000275,-0.000153,-0.952576,-0.000019,-0.000053,0.156964,0.000344,-0.000067,0.106846,0.176636,0.430530,-0.220971,0.014675,0.191033,-0.178017,0.399469,0.854588,-0.202107,0.001293,-0.001977,0.326671,-0.005195,-0.000288,-0.923276,-0.002139,0.000373,12.577975,0.217768,0.976001,0.056616,-0.005136,-10.070430,-0.174859,0.984594,0.010229,-0.002447,50.943684,0.776527,0.630084,1.195801,-0.028057
330.000000,330.000000,0.280762,-0.989258,0.162109,330.000000,0.371933,0.633240,0.022888,330.000000,-7.164368,10.886581,-30.482727,12.632113,-10.060081,52.121357,0.260527,-0.000165,0.000110,-0.952583,-0.000006,0.000012,0.157199,0.000235,-0.000109,0.034529,-0.072317,-0.248953,0.377118,0.598090,0.583415,-0.049019,0.128998,-0.270472,-0.203025,-0.000918,-0.002211,0.322868,-0.003803,0.001392,-0.924412,-0.001136,0.001003,12.632113,0.218690,0.975794,0.054138,-0.002478,-10.060081,-0.174681,0.984625,0.010349,0.000120,52.121357,0.789313,0.613991,1.177673,-0.018127
340.000000,340.000000,0.269531,-1.006347,0.161133,340.000000,0.494003,0.572205,-0.095367,340.000000,-6.264359,9.536575,-31.382721,12.686317,-10.051273,53.275612,0.260514,-0.000013,0.000152,-0.952567,0.000016,0.000022,0.157315,0.000116,-0.000118,0.143378,0.108849,0.181167,0.280721,-0.096398,-0.694488,-0.157038,-0.108018,-0.237016,-0.204343,-0.001318,-0.000400,0.319986,-0.002882,0.000921,-0.925123,-0.000711,0.000424,12.686317,0.219613,0.975587,0.054204,0.000066,-10.051273,-0.174529,0.984652,0.008807,-0.001542,53.275612,0.801521,0.597966,1.154255,-0.023418
350.000000,350.000000,0.269043,-0.997070,0.163086,350.000000,0.249863,1.060486,-0.034332,350.000000,-7.164368,10.136581,-32.282715,12.738853,-10.037292,54.410877,0.260526,0.000011,0.000024,-0.952565,0.000002,-0.000013,0.157311,-0.000004,-0.000121,-0.396131,-0.539509,-0.648358,0.716903,0.436182,0.532580,-0.083779,0.073259,0.181277,-0.204825,-0.000482,0.000836,0.316380,-0.003606,-0.000724,-0.926256,-0.001133,-0.000421,12.738853,0.220508,0.975385,0.052535,-0.001669,-10.037292,-0.174289,0.984695,0.013981,0.005174,54.410877,0.813211,0.581969,1.135265,-0.018990
360.000000,360.000000,0.275391,-1.005859,0.168457,360.000000,-0.478745,0.511169,0.083923,360.000000,-6.264359,10.286575,-32.732727,12.789205,-10.019349,55.515827,0.260549,0.000024,0.000012,-0.952566,-0.000001,-0.000003,0.157265,-0.000046,-0.000042,-0.775155,-0.379024,0.160485,0.120784,-0.596120,-1.032302,0.038301,0.122080,0.048822,-0.204369,0.000456,0.000938,0.312050,-0.004330,-0.000725,-0.927824,-0.001568,-0.000435,12.789205,0.221365,0.975191,0.050352,-0.002183,-10.019349,-0.173981,0.984749,0.017943,0.003963,55.515827,0.824283,0.566179,1.104950,-0.030315
370.000000,370.000000,0.263184,-1.012695,0.169434,370.000000,0.249863,0.022888,0.328064,370.000000,-5.664368,11.336578,-31.532715,12.836097,-10.008911,56.590176,0.260499,-0.000050,-0.000074,-0.952578,-0.000013,-0.000011,0.157272,0.000007,0.000053,-0.013400,0.761755,1.140779,-0.366725,-0.487509,0.108611,0.270271,0.231970,0.109890,-0.202352,0.002017,0.001562,0.308620,-0.003430,0.000900,-0.929412,-0.001588,-0.000020,12.836097,0.222163,0.975010,0.046892,-0.003460,-10.008911,-0.173801,0.984781,0.010438,-0.007505,56.590176,0.834753,0.550624,1.074348,-0.030602
380.000000,380.000000,0.279785,-1.001953,0.162598,380.000000,0.310898,-0.034332,-0.034332,380.000000,-5.664368,9.536575,-31.982727,12.885379,-9.999320,57.637135,0.260311,-0.000188,-0.000138,-0.952623,-0.000045,-0.000032,0.157313,0.000041,0.000034,0.045076,0.058476,-0.703278,-0.399070,-0.032345,0.455164,-0.098681,-0.368953,-0.600923,-0.198461,0.003891,0.001874,0.306627,-0.001993,0.001437,-0.930910,-0.001497,0.000091,12.885379,0.223001,0.974818,0.049282,0.002390,-9.999320,-0.173636,0.984810,0.009591,-0.000847,57.637135,0.844675,0.535279,1.046959,-0.027390
390.000000,390.000000,0.281250,-0.993164,0.177246,390.000000,0.555038,-0.034332,0.022888,390.000000,-8.214371,9.536575,-31.982727,12.933012,-9.992428,58.658127,0.260222,-0.000090,0.000098,-0.952631,-0.000008,0.000036,0.157413,0.000100,0.000058,0.273558,0.228482,0.170006,-0.372422,0.026647,0.058992,-0.034510,0.064171,0.433124,-0.194924,0.003537,-0.000354,0.304323,-0.002305,-0.000312,-0.932412,-0.001502,-0.000005,12.933012,0.223812,0.974632,0.047633,-0.001649,-9.992428,-0.173518,0.984831,0.006892,-0.002699,58.658127,0.854079,0.520143,1.020992,-0.025967
400.000000,400.000000,0.251953,-0.996582,0.156738,400.000000,-0.051498,-0.278473,0.144958,400.000000,-7.614365,11.036575,-30.932724,12.978465,-9.979952,59.654995,0.260188,-0.000034,0.000056,-0.952609,0.000022,0.000030,0.157599,0.000186,0.000087,-0.332129,-0.605688,-0.834170,-0.580164,-0.207742,-0.234389,0.086367,0.120877,0.056706,-0.194533,0.000391,-0.003146,0.301787,-0.002536,-0.000231,-0.933318,-0.000906,0.000597,12.978465,0.224585,0.974455,0.045453,-0.002180,-9.979952,-0.173304,0.984868,0.012476,0.005584,59.654995,0.862999,0.505206,0.996868,-0.024124
410.000000,410.000000,0.281738,-0.996582,0.166504,410.000000,0.494003,-0.217438,0.022888,410.000000,-7.614365,9.836578,-31.532715,13.024006,-9.973228,60.635376,0.260017,-0.000171,-0.000137,-0.952634,-0.000024,-0.000046,0.157736,0.000137,-0.000049,0.216911,0.549040,1.154728,-0.476137,0.104027,0.311769,-0.036890,-0.123258,-0.244135,-0.197050,-0.002518,-0.002909,0.300477,-0.001310,0.001226,-0.933212,0.000105,0.001011,13.024006,0.225359,0.974276,0.045541,0.000088,-9.973228,-0.173188,0.984889,0.006724,-0.005752,60.635376,0.871517,0.490366,0.980381,-0.016487
420.000000,420.000000,0.264160,-0.992187,0.151367,420.000000,0.310898,-0.278473,0.022888,420.000000,-6.564362,9.836578,-31.532715,13.068423,-9.964804,61.599472,0.259840,-0.000176,-0.000005,-0.952686,-0.000052,-0.000028,0.157711,-0.000025,-0.000162,0.021506,-0.195405,-0.744446,-0.495921,-0.019784,-0.123811,-0.032763,0.004127,0.127385,-0.200306,-0.003256,-0.000738,0.299602,-0.000875,0.000435,-0.932800,0.000412,0.000307,13.068423,0.226114,0.974101,0.044417,-0.001123,-9.964804,-0.173043,0.984914,0.008424,0.001699,61.599472,0.879644,0.475632,0.964096,-0.016285
430.000000,430.000000,0.270996,-0.997558,0.152832,430.000000,0.616074,0.389099,-0.644684,430.000000,-7.764359,11.636581,-32.882721,13.118297,-9.959189,62.554329,0.259688,-0.000152,0.000024,-0.952774,-0.000088,-0.000036,0.157427,-0.000284,-0.000259,0.309695,0.288190,0.483595,0.184795,0.680716,0.700500,-0.667424,-0.634661,-0.638789,-0.203026,-0.002720,0.000535,0.299107,-0.000495,0.000380,-0.932371,0.000429,0.000017,13.118297,0.226962,0.973904,0.049873,0.005456,-9.959189,-0.172947,0.984931,0.005614,-0.002810,62.554329,0.887448,0.460907,0.954857,-0.009239
440.000000,440.000000,0.265137,-0.992676,0.161621,440.000000,-0.234604,0.450134,-0.156403,440.000000,-7.764359,11.036575,-31.682724,13.162123,-9.944741,63.494690,0.259489,-0.000199,-0.000047,-0.952911,-0.000136,-0.000048,0.156929,-0.000498,-0.000214,-0.533412,-0.843107,-1.131297,0.226757,0.041962,-0.638754,-0.139978,0.527446,1.162107,-0.205666,-0.002640,0.000081,0.300211,0.001104,0.001599,-0.931437,0.000934,0.000504,13.162123,0.227707,0.973730,0.043826,-0.006047,-9.944741,-0.172698,0.984975,0.014448,0.008834,63.494690,0.894893,0.446281,0.940361,-0.014496
450.000000,450.000000,0.269531,-1.008301,0.168457,450.000000,0.310898,0.389099,-0.156403,450.000000,-8.214371,11.036575,-31.682724,13.204735,-9.935349,64.421211,0.259228,-0.000261,-0.000062,-0.953059,-0.000148,-0.000012,0.156459,-0.000470,0.000028,0.032686,0.566099,1.409206,0.147529,-0.079228,-0.121190,-0.123911,0.016067,-0.511379,-0.209053,-0.003387,-0.000747,0.302670,0.002459,0.001356,-0.929886,0.001551,0.000617,13.204735,0.228431,0.973560,0.042612,-0.001214,-9.935349,-0.172537,0.985003,0.009392,-0.005056,64.421211,0.901992,0.431752,0.926521,-0.013840
460.000000,460.000000,0.274414,-1.002441,0.159180,460.000000,0.005722,0.205994,-0.461578,460.000000,-6.564362,10.286575,-31.382721,13.249122,-9.922703,65.333076,0.258940,-0.000288,-0.000027,-0.953197,-0.000138,0.000010,0.156096,-0.000363,0.000107,-0.263180,-0.295867,-0.861965,-0.042286,-0.189815,-0.110587,-0.400656,-0.276745,-0.292812,-0.212434,-0.003381,0.000005,0.305341,0.002672,0.000212,-0.928245,0.001641,0.000090,13.249122,0.229185,0.973383,0.044387,0.001775,-9.922703,-0.172319,0.985041,0.012647,0.003255,65.333076,0.908749,0.417343,0.911865,-0.014656
470.000000,470.000000,0.263672,-0.994140,0.167480,470.000000,-0.234604,0.328064,-0.583649,470.000000,-6.564362,11.636581,-30.782715,13.293484,-9.907591,66.231514,0.258675,-0.000266,0.000022,-0.953316,-0.000120,0.000018,0.155805,-0.000290,0.000073,-0.470865,-0.207685,0.088182,0.076111,0.118398,0.308212,-0.477208,-0.076552,0.200192,-0.214095,-0.001661,0.001720,0.308164,0.002823,0.000152,-0.926929,0.001316,-0.000326,13.293484,0.229939,0.973205,0.044362,-0.000025,-9.907591,-0.172060,0.985087,0.015112,0.002465,66.231514,0.915182,0.403042,0.898438,-0.013428
480.000000,480.000000,0.265625,-1.003906,0.166016,480.000000,0.127792,0.511169,-0.461578,480.000000,-6.864365,11.636581,-30.782715,13.335367,-9.896119,67.115654,0.258354,-0.000321,-0.000055,-0.953430,-0.000114,0.000006,0.155641,-0.000164,0.000126,-0.082583,0.388283,0.595967,0.242537,0.166426,0.048029,-0.311917,0.165291,0.241843,-0.213870,0.000225,0.001886,0.312207,0.004042,0.001219,-0.925628,0.001302,-0.000014,13.335367,0.230650,0.973037,0.041883,-0.002479,-9.896119,-0.171862,0.985121,0.011472,-0.003640,67.115654,0.921292,0.388872,0.884140,-0.014297
490.000000,490.000000,0.265137,-1.007324,0.175293,490.000000,-0.051498,0.022888,0.205994,490.000000,-8.364365,12.086578,-32.882721,13.369349,-9.883133,67.979332,0.257917,-0.000436,-0.000115,-0.953543,-0.000113,0.000001,0.155671,0.000030,0.000195,-0.245148,-0.162566,-0.550848,-0.248314,-0.490851,-0.657277,0.362294,0.674212,0.508921,-0.213380,0.000491,0.000266,0.317330,0.005124,0.001081,-0.923997,0.001630,0.000329,13.369349,0.231227,0.972900,0.033981,-0.007902,-9.883133,-0.171639,0.985160,0.012986,0.001514,67.979332,0.927049,0.374941,0.863678,-0.020462
500.000000,500.000000,0.269043,-0.998047,0.172363,500.000000,0.310898,0.328064,-0.705719,500.000000,-8.664368,10.886581,-32.582718,13.411005,-9.874260,68.832298,0.257423,-0.000494,-0.000058,-0.953632,-0.000089,0.000024,0.155943,0.000272,0.000242,0.125181,0.370330,0.532895,0.062484,0.310797,0.801648,-0.532841,-0.895136,-1.569347,-0.214331,-0.000951,-0.001442,0.321748,0.004418,-0.000706,-0.922248,0.001749,0.000119,13.411005,0.231935,0.972731,0.041656,0.007675,-9.874260,-0.171487,0.985186,0.008873,-0.004113,68.832298,0.932527,0.361099,0.852966,-0.010712
510.000000,510.000000,0.261719,-1.003906,0.165527,510.000000,-0.234604,0.022888,-0.278473,510.000000,-8.664368,9.836578,-32.582718,13.447057,-9.860714,69.669815,0.256919,-0.000504,-0.000011,-0.953697,-0.000065,0.000024,0.156377,0.000434,0.000162,-0.404893,-0.530074,-0.900404,-0.237208,-0.299692,-0.610489,-0.069084,0.463758,1.358894,-0.217236,-0.002906,-0.001955,0.323417,0.001669,-0.002749,-0.920983,0.001265,-0.000485,13.447057,0.232547,0.972585,0.036052,-0.005605,-9.860714,-0.171254,0.985227,0.013546,0.004673,69.669815,0.937706,0.347430,0.837517,-0.015450
520.000000,520.000000,0.253418,-0.997070,0.177246,520.000000,0.371933,-0.217438,-0.156403,520.000000,-6.564362,9.836578,-32.582718,13.480472,-9.853974,70.491386,0.256299,-0.000620,-0.000116,-0.953779,-0.000082,-0.000017,0.156896,0.000519,0.000085,0.213607,0.618500,1.148574,-0.448490,-0.211283,0.088409,0.063591,0.132674,-0.331083,-0.220308,-0.003071,-0.000166,0.321605,-0.001812,-0.003480,-0.920888,0.000095,-0.001169,13.480472,0.233114,0.972449,0.033415,-0.002637,-9.853974,-0.171138,0.985247,0.006740,-0.006806,70.491386,0.942591,0.333949,0.821571,-0.015945
530.000000,530.000000,0.267578,-1.008789,0.157227,530.000000,0.799179,-0.888824,-0.217438,530.000000,-7.314362,9.086578,-32.282715,13.512926,-9.852167,71.289383,0.255535,-0.000764,-0.000143,-0.953895,-0.000116,-0.000034,0.157438,0.000541,0.000022,0.607213,0.393606,-0.224894,-1.052442,-0.603952,-0.392669,0.009596,-0.053995,-0.186669,-0.221437,-0.001129,0.001942,0.316986,-0.004619,-0.002807,-0.922218,-0.001330,-0.001425,13.512926,0.233665,0.972317,0.032454,-0.000960,-9.852167,-0.171107,0.985252,0.001807,-0.004932,71.289383,0.947151,0.320789,0.797997,-0.023575
540.000000,540.000000,0.264648,-0.998535,0.172363,540.000000,1.043320,0.022888,0.083923,540.000000,-7.314362,11.336578,-31.532715,13.540913,-9.853271,72.077522,0.254797,-0.000738,0.000026,-0.954020,-0.000126,-0.000010,0.157871,0.000433,-0.000108,0.789910,0.182697,-0.210909,-0.086764,0.965678,1.569630,0.306804,0.297208,0.351202,-0.221035,0.000402,0.001531,0.311582,-0.005405,-0.000786,-0.924154,-0.001936,-0.000607,13.540913,0.234140,0.972203,0.027987,-0.004468,-9.853271,-0.171126,0.985249,-0.001104,-0.002912,72.077522,0.951474,0.307730,0.788139,-0.009857
550.000000,550.000000,0.286133,-0.990722,0.163574,550.000000,0.494003,0.389099,-0.400543,550.000000,-8.664368,11.336578,-31.532715,13.572556,-9.849376,72.851990,0.254340,-0.000457,0.000281,-0.954083,-0.000063,0.000063,0.158228,0.000357,-0.000076,0.195112,-0.594797,-0.777494,0.275340,0.362104,-0.603574,-0.174096,-0.480900,-0.778107,-0.220905,0.000130,-0.000272,0.308270,-0.003312,0.002093,-0.925295,-0.001141,0.000795,13.572556,0.234677,0.972073,0.031644,0.003657,-9.849376,-0.171059,0.985261,0.003896,0.005000,72.851990,0.955546,0.294841,0.774467,-0.013672
560.000000,560.000000,0.276367,-1.003418,0.165527,560.000000,0.310898,0.022888,-0.034332,560.000000,-7.164368,12.086578,-30.782715,13.600001,-9.844112,73.608551,0.254348,0.000007,0.000465,-0.954033,0.000050,0.000113,0.158519,0.000290,-0.000067,0.000446,-0.194666,0.400131,-0.094977,-0.370317,-0.732421,0.200260,0.374356,0.855256,-0.221683,-0.000778,-0.000908,0.308337,0.000067,0.003379,-0.925086,0.000208,0.001349,13.600001,0.235142,0.971961,0.027445,-0.004199,-9.844112,-0.170968,0.985277,0.005263,0.001368,73.608551,0.959356,0.282198,0.756561,-0.017906
570.000000,570.000000,0.267578,-1.018066,0.155273,570.000000,0.005722,0.144958,-0.339508,570.000000,-7.164368,12.236588,-31.682724,13.630206,-9.836080,74.353401,0.254609,0.000261,0.000254,-0.953949,0.000084,0.000034,0.158604,0.000085,-0.000205,-0.294436,-0.294882,-0.100216,0.033613,0.128590,0.498907,-0.100180,-0.300440,-0.674796,-0.222079,-0.000395,0.000382,0.311601,0.003264,0.003197,-0.923897,0.001189,0.000981,13.630206,0.235654,0.971837,0.030205,0.002760,-9.836080,-0.170830,0.985301,0.008033,0.002769,74.353401,0.962944,0.269703,0.744850,-0.011711
580.000000,580.000000,0.253418,-1.008789,0.166016,580.000000,0.127792,0.572205,-0.278473,580.000000,-6.864365,12.236588,-31.682724,13.659322,-9.829223,75.089088,0.254709,0.000101,-0.000161,-0.953948,0.000001,-0.000083,0.158449,-0.000155,-0.000241,-0.154454,0.139982,0.434864,0.443057,0.409444,0.280854,-0.024401,0.075779,0.376220,-0.221029,0.001050,0.001445,0.317107,0.005505,0.002241,-0.922274,0.001623,0.000434,13.659322,0.236148,0.971717,0.029116,-0.001089,-9.829223,-0.170712,0.985321,0.006857,-0.001176,75.089088,0.966327,0.257317,0.735687,-0.009163
590.000000,590.000000,0.270019,-0.991699,0.157227,590.000000,0.555038,0.328064,-0.705719,590.000000,-5.964371,10.886581,-31.832718,13.691871,-9.826339,75.807251,0.254579,-0.000131,-0.000232,-0.954031,-0.000083,-0.000084,0.158162,-0.000287,-0.000132,0.266124,0.420578,0.280596,0.173803,-0.269254,-0.678697,-0.422034,-0.397634,-0.473413,-0.218221,0.002808,0.001759,0.322858,0.005751,0.000246,-0.920947,0.001328,-0.000295,13.691871,0.236700,0.971583,0.032549,0.003433,-9.826339,-0.170662,0.985330,0.002884,-0.003973,75.807251,0.969476,0.245185,0.718163,-0.017525
600.000000,600.000000,0.265137,-1.003906,0.156738,600.000000,0.066757,0.694275,-0.217438,600.000000,-5.964371,11.486588,-31.382721,13.718787,-9.818238,76.511086,0.254432,-0.000147,-0.000016,-0.954136,-0.000105,-0.000023,0.157761,-0.000401,-0.000114,-0.225805,-0.491929,-0.912506,0.510613,0.336810,0.606064,0.091477,0.513511,0.911145,-0.213440,0.004781,0.001973,0.327317,0.004459,-0.001292,-0.920493,0.000454,-0.000874,13.718787,0.237157,0.971471,0.026917,-0.005632,-9.818238,-0.170523,0.985354,0.008101,0.005217,76.511086,0.972415,0.233257,0.703835,-0.014328
610.000000,610.000000,0.265625,-1.003418,0.150879,610.000000,0.799179,0.389099,-0.400543,610.000000,-7.614365,11.486588,-31.382721,13.746798,-9.816752,77.193321,0.254321,-0.000111,0.000036,-0.954265,-0.000128,-0.000023,0.157162,-0.000599,-0.000198,0.492601,0.718406,1.210334,0.174647,-0.335967,-0.672777,-0.081229,-0.172706,-0.686217,-0.208271,0.005169,0.000387,0.330612,0.003295,-0.001164,-0.920499,-0.000006,-0.000460,13.746798,0.237632,0.971355,0.028010,0.001094,-9.816752,-0.170498,0.985358,0.001486,-0.006615,77.193321,0.975124,0.221662,0.682236,-0.021599
620.000000,620.000000,0.255371,-1.005371,0.165039,620.000000,0.371933,-0.400543,-0.583649,620.000000,-7.464371,10.586578,-32.282715,13.775763,-9.810225,77.851265,0.254118,-0.000203,-0.000092,-0.954438,-0.000174,-0.000045,0.156434,-0.000729,-0.000130,0.038791,-0.453810,-1.172216,-0.596828,-0.771475,-0.435508,-0.238943,-0.157715,0.014991,-0.204985,0.003286,-0.001883,0.332535,0.001922,-0.001373,-0.920544,-0.000045,-0.000039,13.775763,0.238123,0.971235,0.028965,0.000955,-9.810225,-0.170385,0.985377,0.006528,0.005042,77.851265,0.977605,0.210450,0.657944,-0.024292
630.000000,630.000000,0.255859,-1.002441,0.167480,630.000000,0.677109,0.083923,-0.400543,630.000000,-7.464371,11.786575,-31.382721,13.801829,-9.806053,78.499794,0.253706,-0.000412,-0.000209,-0.954649,-0.000211,-0.000037,0.155815,-0.000619,0.000110,0.324012,0.285221,0.739031,-0.081713,0.515115,1.286590,-0.032049,0.206894,0.364609,-0.203860,0.001125,-0.002162,0.332896,0.000361,-0.001561,-0.920663,-0.000119,-0.000074,13.801829,0.238564,0.971127,0.026067,-0.002898,-9.806053,-0.170314,0.985390,0.004171,-0.002357,78.499794,0.979924,0.199371,0.648529,-0.009415
640.000000,640.000000,0.263672,-1.008301,0.159180,640.000000,0.860214,0.205994,0.267029,640.000000,-6.714371,11.786575,-31.382721,13.820120,-9.803204,79.136719,0.253130,-0.000576,-0.000164,-0.954874,-0.000224,-0.000014,0.155376,-0.000439,0.000180,0.466993,0.142981,-0.142241,0.043266,0.124979,-0.390136,0.620789,0.652838,0.445943,-0.203753,0.000108,-0.001017,0.333204,0.000308,-0.000054,-0.920576,0.000088,0.000207,13.820120,0.238874,0.971050,0.018291,-0.007776,-9.803204,-0.170265,0.985398,0.002850,-0.001322,79.136719,0.982080,0.188466,0.636925,-0.011604
650.000000,650.000000,0.283691,-1.002929,0.160156,650.000000,1.104355,0.267029,0.205994,650.000000,-6.564362,11.786575,-31.682724,13.837960,-9.801108,79.761841,0.252578,-0.000553,0.000023,-0.955084,-0.000210,0.000014,0.154982,-0.000393,0.000046,0.537670,0.070677,-0.072304,0.099072,0.055806,-0.069172,0.518829,-0.101959,-0.754797,-0.203484,0.000269,0.000161,0.334244,0.001040,0.000732,-0.920258,0.000317,0.000230,13.837960,0.239177,0.970976,0.017840,-0.000450,-9.801108,-0.170229,0.985405,0.002095,-0.000754,79.761841,0.984077,0.177740,0.625122,-0.011803
660.000000,660.000000,0.278809,-1.013672,0.158691,660.000000,1.836777,0.267029,0.328064,660.000000,-6.564362,10.886581,-31.532715,13.853813,-9.806912,80.374031,0.252232,-0.000346,0.000207,-0.955243,-0.000159,0.000051,0.154566,-0.000416,-0.000023,1.300898,0.763229,0.692552,0.091377,-0.007696,-0.063502,0.598727,0.079897,0.181857,-0.202614,0.000870,0.000601,0.335156,0.000913,-0.000127,-0.920118,0.000140,-0.000177,13.853813,0.239445,0.970910,0.015853,-0.001987,-9.806912,-0.170328,0.985387,-0.005804,-0.007899,80.374031,0.985920,0.167216,0.612190,-0.012932
670.000000,670.000000,0.280273,-1.001953,0.153320,670.000000,4.034042,0.694275,0.511169,670.000000,-7.314362,10.886581,-31.532715,13.867554,-9.833549,80.977341,0.252251,0.000019,0.000364,-0.955316,-0.000074,0.000085,0.154079,-0.000487,-0.000071,3.278739,1.977841,1.214612,0.492669,0.401293,0.408988,0.727951,0.129224,0.049327,-0.201753,0.000862,-0.000008,0.334961,-0.000195,-0.001108,-0.920379,-0.000260,-0.000401,13.867554,0.239678,0.970852,0.013741,-0.002112,-9.833549,-0.170786,0.985308,-0.026637,-0.020833,80.977341,0.987626,0.156825,0.603310,-0.008881
680.000000,680.000000,0.281250,-1.005859,0.155273,680.000000,6.780624,0.267029,0.328064,680.000000,-5.964371,12.836578,-30.032715,13.883299,-9.885878,81.564140,0.252679,0.000428,0.000409,-0.955299,0.000017,0.000091,0.153484,-0.000595,-0.000108,5.601471,2.322732,0.344891,0.040622,-0.452047,-0.853340,0.493141,-0.234810,-0.364035,-0.201102,0.000651,-0.000211,0.334914,-0.000047,0.000148,-0.920538,-0.000159,0.000101,13.883299,0.239945,0.970786,0.015745,0.002005,-9.885878,-0.171686,0.985152,-0.052328,-0.025691,81.564140,0.989181,0.146702,0.586800,-0.016510
690.000000,690.000000,0.286133,-1.017578,0.164551,690.000000,8.733749,0.633240,1.670837,690.000000,-5.964371,11.786575,-32.432724,13.886463,-9.955603,82.142242,0.253447,0.000769,0.000341,-0.955194,0.000105,0.000088,0.152870,-0.000614,-0.000018,6.946572,1.345101,-0.977630,0.385832,0.345210,0.797257,1.736001,1.242860,1.477670,-0.199491,0.001611,0.000960,0.336637,0.001723,0.001770,-0.920260,0.000278,0.000437,13.886463,0.239999,0.970773,0.003164,-0.012581,-9.955603,-0.172885,0.984942,-0.069725,-0.017397,82.142242,0.990611,0.136714,0.578102,-0.008698
700.000000,700.000000,0.266602,-1.012695,0.163574,700.000000,9.405136,0.816345,2.708435,700.000000,-6.264359,11.786575,-32.432724,13.880449,-10.029971,82.708382,0.254345,0.000898,0.000129,-0.955033,0.000161,0.000055,0.152382,-0.000488,0.000125,6.925019,-0.021553,-1.366654,0.525085,0.139253,-0.205957,2.574714,0.838713,-0.404147,-0.196446,0.003045,0.001434,0.338721,0.002083,0.000360,-0.920151,0.000110,-0.000168,13.880449,0.239897,0.970798,-0.006014,-0.009178,-10.029971,-0.174163,0.984717,-0.074368,-0.004643,82.708382,0.991913,0.126920,0.566139,-0.011963
710.000000,710.000000,0.260254,-1.002929,0.166016,710.000000,9.954453,3.318787,4.417419,710.000000,-7.464371,10.886581,-31.232727,13.858631,-10.107927,83.285156,0.255043,0.000697,-0.000200,-0.954893,0.000140,-0.000020,0.152096,-0.000286,0.000202,6.762366,-0.162653,-0.141100,2.869059,2.343974,2.204721,3.974598,1.399884,0.561170,-0.193699,0.002748,-0.000297,0.339556,0.000835,-0.001248,-0.920425,-0.000275,-0.000384,13.858631,0.239527,0.970890,-0.021818,-0.015804,-10.107927,-0.175503,0.984479,-0.077956,-0.003588,83.285156,0.993140,0.116928,0.576775,0.010635
720.000000,720.000000,0.252930,-1.004394,0.151855,720.000000,8.977890,3.990173,3.807068,720.000000,-7.464371,10.286575,-31.682724,13.843575,-10.174576,83.856239,0.255335,0.000293,-0.000405,-0.954840,0.000053,-0.000088,0.151935,-0.000160,0.000126,5.128419,-1.633947,-1.471293,3.251414,0.382355,-1.961619,3.021893,-0.952705,-2.352588,-0.193189,0.000510,-0.002238,0.338533,-0.001023,-0.001859,-0.920909,-0.000484,-0.000209,13.843575,0.239272,0.970953,-0.015057,0.006762,-10.174576,-0.176648,0.984274,-0.066648,0.011308,83.856239,0.994256,0.107023,0.571083,-0.005692
730.000000,730.000000,0.291016,-0.998535,0.173828,730.000000,9.771347,3.623962,2.586365,730.000000,-8.214371,10.286575,-31.682724,13.840918,-10.247579,84.413971,0.255452,0.000117,-0.000176,-0.954822,0.000019,-0.000034,0.151856,-0.000079,0.000081,5.307118,0.178699,1.812646,2.596466,-0.654948,-1.037302,1.554945,-1.466948,-0.514244,-0.195363,-0.002174,-0.002684,0.335289,-0.003244,-0.002220,-0.921637,-0.000728,-0.000244,13.840918,0.239227,0.970964,-0.002657,0.012400,-10.247579,-0.177902,0.984048,-0.073003,-0.006354,84.413971,0.995251,0.097340,0.557732,-0.013351
740.000000,740.000000,0.276855,-0.997558,0.163574,740.000000,9.466171,3.013611,2.037048,740.000000,-6.714371,9.536575,-30.332718,13.844150,-10.316298,84.957481,0.255824,0.000372,0.000256,-0.954702,0.000119,0.000101,0.151980,0.000124,0.000203,4.399680,-0.907439,-1.086138,1.753862,-0.842604,-0.187656,0.849057,-0.705888,0.761061,-0.199229,-0.003867,-0.001692,0.330325,-0.004963,-0.001720,-0.922601,-0.000964,-0.000236,13.844150,0.239282,0.970950,0.003232,0.005889,-10.316298,-0.179082,0.983834,-0.068719,0.004284,84.957481,0.996130,0.087895,0.543510,-0.014221
750.000000,750.000000,0.278320,-0.992676,0.166016,750.000000,7.329941,2.647400,2.098083,750.000000,-6.714371,9.536575,-31.682724,13.847521,-10.363116,85.488335,0.256480,0.000656,0.000284,-0.954476,0.000226,0.000107,0.152294,0.000314,0.000190,1.801287,-2.598393,-1.690954,1.209803,-0.544059,0.298545,0.783806,-0.065251,0.640637,-0.202815,-0.003585,0.000282,0.324165,-0.006160,-0.001197,-0.924004,-0.001403,-0.000439,13.847521,0.239339,0.970936,0.003371,0.000139,-10.363116,-0.179886,0.983687,-0.046819,0.021900,85.488335,0.996901,0.078662,0.530853,-0.012657
760.000000,760.000000,0.288574,-0.987793,0.148926,760.000000,6.841660,2.586365,2.586365,760.000000,-7.464371,9.536575,-31.682724,13.847113,-10.404622,86.008018,0.257361,0.000881,0.000225,-0.954190,0.000286,0.000060,0.152597,0.000304,-0.000010,0.993348,-0.807939,1.790454,0.999345,-0.210458,0.333600,1.129821,0.346015,0.411265,-0.205395,-0.002580,0.001005,0.317083,-0.007082,-0.000922,-0.925889,-0.001885,-0.000483,13.847113,0.239332,0.970938,-0.000408,-0.003779,-10.404622,-0.180598,0.983557,-0.041506,0.005313,86.008018,0.997574,0.069617,0.519684,-0.011169
770.000000,770.000000,0.288086,-0.989746,0.147461,770.000000,6.414413,2.708435,1.853943,770.000000,-6.714371,9.986588,-31.682724,13.855345,-10.441236,86.517830,0.258570,0.001209,0.000328,-0.953855,0.000335,0.000050,0.152651,0.000054,-0.000250,0.308733,-0.684615,0.123323,0.978153,-0.021192,0.189266,0.274491,-0.855330,-1.201344,-0.207373,-0.001978,0.000602,0.309930,-0.007153,-0.000071,-0.927868,-0.001979,-0.000093,13.855345,0.239471,0.970903,0.008232,0.008640,-10.441236,-0.181227,0.983441,-0.036614,0.004891,86.517830,0.998154,0.060738,0.509811,-0.009872
780.000000,780.000000,0.290527,-0.995117,0.148926,780.000000,6.902695,4.783630,0.083923,780.000000,-6.714371,9.986588,-32.432724,13.882549,-10.481640,87.036415,0.260071,0.001502,0.000293,-0.953492,0.000363,0.000028,0.152368,-0.000283,-0.000337,0.556902,0.248169,0.932784,2.823314,1.845162,1.866354,-1.501659,-1.776150,-0.920821,-0.208255,-0.000881,0.001097,0.303693,-0.006237,0.000916,-0.929731,-0.001863,0.000116,13.882549,0.239932,0.970790,0.027205,0.018972,-10.481640,-0.181920,0.983313,-0.040403,-0.003789,87.036415,0.998663,0.051701,0.518585,0.008774
790.000000,790.000000,0.300781,-0.996094,0.151367,790.000000,6.658554,6.126404,-0.461578,790.000000,-7.464371,9.986588,-32.432724,13.916639,-10.518303,87.555801,0.261827,0.001755,0.000254,-0.953095,0.000397,0.000034,0.151844,-0.000524,-0.000241,0.081272,-0.475629,-0.723798,3.800331,0.977017,-0.868145,-1.949815,-0.448156,1.327994,-0.208169,0.000086,0.000967,0.298555,-0.005138,0.001099,-0.931413,-0.001682,0.000181,13.916639,0.240510,0.970647,0.034090,0.006886,-10.518303,-0.182550,0.983197,-0.036663,0.003740,87.555801,0.999090,0.042646,0.519386,0.000801
800.000000,800.000000,0.294922,-0.984375,0.147461,800.000000,7.513046,6.492615,-2.048492,800.000000,-7.764359,11.486588,-32.432724,13.967997,-10.561898,88.067772,0.263847,0.002021,0.000266,-0.952645,0.000450,0.000053,0.151169,-0.000675,-0.000152,0.696666,0.615393,1.091023,3.745793,-0.054538,-1.031555,-3.348655,-1.398840,-0.950684,-0.208349,-0.000180,-0.000266,0.295177,-0.003379,0.001760,-0.932449,-0.001036,0.000646,13.967997,0.241380,0.970431,0.051357,0.017267,-10.561898,-0.183298,0.983057,-0.043595,-0.006932,88.067772,0.999431,0.033717,0.511971,-0.007416
810.000000,810.000000,0.312012,-0.985351,0.144531,810.000000,6.353378,7.408142,-3.269196,810.000000,-7.164368,10.286575,-32.732727,14.033032,-10.592398,88.579536,0.266160,0.002312,0.000291,-0.952130,0.000515,0.000064,0.150355,-0.000813,-0.000138,-0.669528,-1.366194,-1.981587,4.207182,0.461389,0.515927,-4.265609,-0.916954,0.481886,-0.209008,-0.000659,-0.000479,0.294103,-0.001074,0.002305,-0.932641,-0.000192,0.000844,14.033032,0.242481,0.970156,0.065036,0.013679,-10.592398,-0.183821,0.982960,-0.030499,0.013096,88.579536,0.999693,0.024789,0.511765,-0.000206
820.000000,820.000000,0.310547,-0.977051,0.140625,820.000000,3.423691,8.872986,-4.367828,820.000000,-7.164368,9.536575,-32.432724,14.110722,-10.592533,89.096367,0.268848,0.002688,0.000376,-0.951530,0.000601,0.000086,0.149372,-0.000983,-0.000170,-3.610132,-2.940604,-1.574411,5.138889,0.931707,0.470318,-4.971716,-0.706107,0.210847,-0.209437,-0.000429,0.000230,0.293684,-0.000419,0.000655,-0.932677,-0.000036,0.000156,14.110722,0.243796,0.969826,0.077689,0.012653,-10.592533,-0.183823,0.982959,-0.000135,0.030364,89.096367,0.999876,0.015771,0.516830,0.005066
830.000000,830.000000,0.309570,-0.968261,0.122070,830.000000,0.066757,10.765076,-4.611969,830.000000,-6.714371,9.536575,-32.432724,14.192849,-10.558389,89.620911,0.271888,0.003040,0.000352,-0.950865,0.000665,0.000064,0.148096,-0.001276,-0.000293,-6.695752,-3.085620,-0.145015,6.380640,1.241750,0.310043,-4.781641,0.190075,0.896183,-0.209230,0.000207,0.000636,0.292361,-0.001323,-0.000904,-0.933139,-0.000462,-0.000426,14.192849,0.245186,0.969476,0.082128,0.004438,-10.558389,-0.183237,0.983069,0.034144,0.034280,89.620911,0.999978,0.006616,0.524544,0.007713
840.000000,840.000000,0.292969,-0.967773,0.112305,840.000000,-2.614975,12.901306,-4.123688,840.000000,-6.564362,10.286575,-33.782715,14.272253,-10.496639,90.153557,0.275035,0.003146,0.000106,-0.950239,0.000626,-0.000039,0.146294,-0.001802,-0.000525,-8.847858,-2.152106,0.933513,7.726231,1.345592,0.103841,-3.889065,0.892576,0.702500,-0.207933,0.001297,0.001090,0.290442,-0.001919,-0.000596,-0.934028,-0.000889,-0.000427,14.272253,0.246530,0.969135,0.079404,-0.002724,-10.496639,-0.182178,0.983266,0.061749,0.027605,90.153557,0.999996,-0.002680,0.532646,0.008102
850.000000,850.000000,0.290527,-0.976074,0.108398,850.000000,-4.446030,15.037537,-4.062653,850.000000,-6.564362,10.586578,-31.232727,14.352840,-10.415379,90.693047,0.277929,0.002895,-0.000252,-0.949770,0.000468,-0.000158,0.143846,-0.002449,-0.000647,-9.969840,-1.121982,1.030125,8.928219,1.201988,-0.143604,-3.466363,0.422702,-0.469874,-0.205552,0.002380,0.001083,0.289257,-0.001185,0.000734,-0.934922,-0.000894,-0.000005,14.352840,0.247893,0.968788,0.080587,0.001184,-10.415379,-0.180783,0.983523,0.081261,0.019511,90.693047,0.999927,-0.012096,0.539490,0.006844
860.000000,860.000000,0.269531,-0.989258,0.134766,860.000000,-3.652573,15.281677,-5.039215,860.000000,-5.214371,10.586578,-31.232727,14.443974,-10.340225,91.220581,0.280188,0.002259,-0.000636,-0.949531,0.000240,-0.000229,0.141018,-0.002827,-0.000379,-8.448293,1.521547,2.643529,8.184405,-0.743814,-1.945801,-4.059009,-0.592646,-1.015348,-0.202210,0.003343,0.000962,0.289987,0.000730,0.001915,-0.935424,-0.000503,0.000391,14.443974,0.249433,0.968392,0.091133,0.010546,-10.340225,-0.179493,0.983759,0.075153,-0.006107,91.220581,0.999773,-0.021302,0.527534,-0.011955
870.000000,870.000000,0.265137,-1.001953,0.116211,870.000000,-3.469467,15.586853,-4.611969,870.000000,-6.714371,10.136581,-31.532715,14.530478,-10.265003,91.736725,0.281445,0.001258,-0.001001,-0.949577,-0.000046,-0.000286,0.138175,-0.002843,-0.000016,-7.608018,0.840274,-0.681273,7.531290,-0.653115,0.090698,-3.243124,0.815885,1.408531,-0.198083,0.004127,0.000784,0.292200,0.002213,0.001483,-0.935619,-0.000194,0.000308,14.530478,0.250895,0.968014,0.086504,-0.004629,-10.265003,-0.178201,0.983994,0.075222,0.000069,91.736725,0.999541,-0.030307,0.516144,-0.011391
880.000000,880.000000,0.264160,-0.997070,0.120117,880.000000,-5.483627,15.159607,-4.550934,880.000000,-6.714371,12.236588,-31.682724,14.614722,-10.168127,92.235687,0.281614,0.000168,-0.001089,-0.949936,-0.000359,-0.000313,0.135335,-0.002841,0.000002,-8.912218,-1.304200,-2.144474,6.204653,-1.326637,-0.673522,-2.834651,0.408473,-0.407412,-0.194557,0.003526,-0.000601,0.295663,0.003463,0.001250,-0.935270,0.000348,0.000542,14.614722,0.252318,0.967644,0.084245,-0.002259,-10.168127,-0.176537,0.984294,0.096876,0.021654,92.235687,0.999239,-0.039010,0.498962,-0.017181
890.000000,890.000000,0.277344,-0.980957,0.105469,890.000000,-7.925034,14.244080,-4.245758,890.000000,-5.514359,12.236588,-31.682724,14.693439,-10.045705,92.714722,0.281020,-0.000594,-0.000763,-0.950524,-0.000588,-0.000229,0.132408,-0.002927,-0.000086,-10.480531,-1.568313,-0.264113,4.500304,-1.704349,-0.377712,-2.216666,0.617986,0.209513,-0.191670,0.002887,-0.000638,0.301547,0.005884,0.002421,-0.933987,0.001283,0.000935,14.693439,0.253647,0.967297,0.078717,-0.005527,-10.045705,-0.174434,0.984669,0.122422,0.025546,92.714722,0.998878,-0.047363,0.479034,-0.019928
900.000000,900.000000,0.279785,-0.964355,0.090332,900.000000,-10.366440,12.596130,-5.283356,900.000000,-5.514359,12.386581,-33.332718,14.779585,-9.897957,93.166740,0.280170,-0.000850,-0.000256,-0.951209,-0.000686,-0.000097,0.129248,-0.003160,-0.000233,-11.875896,-1.395365,0.172948,2.223267,-2.277037,-0.572688,-2.927269,-0.710603,-1.328588,-0.187807,0.003863,0.000976,0.309479,0.007932,0.002048,-0.932175,0.001812,0.000528,14.779585,0.255101,0.966914,0.086145,0.007428,-9.897957,-0.171894,0.985115,0.147748,0.025326,93.166740,0.998473,-0.055242,0.452019,-0.027016
910.000000,910.000000,0.299805,-0.981445,0.081543,910.000000,-13.845444,11.985779,-5.832672,910.000000,-5.514359,10.136581,-32.582718,14.868417,-9.714674,93.600403,0.279493,-0.000677,0.000173,-0.951894,-0.000685,0.000001,0.125625,-0.003624,-0.000464,-14.100252,-2.224357,-0.828992,1.123939,-1.099328,1.177709,-3.099329,-0.172061,0.538542,-0.182765,0.005043,0.001180,0.316627,0.007147,-0.000785,-0.930776,0.001399,-0.000413,14.868417,0.256600,0.966518,0.088832,0.002687,-9.714674,-0.168742,0.985660,0.183283,0.035535,93.600403,0.998026,-0.062798,0.433662,-0.018356
920.000000,920.000000,0.292480,-0.997558,0.089355,920.000000,-15.432358,12.962341,-7.114410,920.000000,-6.264359,10.136581,-32.582718,14.967449,-9.514560,94.030205,0.279151,-0.000342,0.000336,-0.952526,-0.000632,0.000053,0.121528,-0.004097,-0.000473,-14.272337,-0.172085,2.052272,1.631786,0.507846,1.607174,-3.945642,-0.846313,-0.674252,-0.177947,0.004818,-0.000225,0.320340,0.003713,-0.003434,-0.930439,0.000337,-0.001062,14.967449,0.258270,0.966073,0.099032,0.010201,-9.514560,-0.165298,0.986244,0.200114,0.016831,94.030205,0.997527,-0.070282,0.429802,-0.003860
930.000000,930.000000,0.313965,-0.988769,0.083496,930.000000,-17.263412,14.366150,-7.846832,930.000000,-7.164368,10.586578,-32.282715,15.071538,-9.295251,94.461166,0.279182,0.000031,0.000372,-0.953064,-0.000538,0.000094,0.117160,-0.004368,-0.000271,-14.609389,-0.337052,-0.164968,2.498966,0.867180,0.359334,-4.179644,-0.234001,0.612312,-0.175181,0.002765,-0.002052,0.320730,0.000390,-0.003323,-0.930830,-0.000390,-0.000727,15.071538,0.260025,0.965602,0.104089,0.005056,-9.295251,-0.161522,0.986869,0.219309,0.019195,94.461166,0.996970,-0.077783,0.430962,0.001160
940.000000,940.000000,0.332519,-1.003906,0.094727,940.000000,-19.216537,16.563416,-8.579254,940.000000,-7.164368,11.036575,-32.732727,15.181349,-9.055920,94.903755,0.279846,0.000664,0.000633,-0.953401,-0.000337,0.000201,0.112755,-0.004406,-0.000038,-14.979344,-0.369955,-0.032903,4.041948,1.542982,0.675802,-4.377955,-0.198312,0.035690,-0.175354,-0.000173,-0.002938,0.319619,-0.001111,-0.001501,-0.931179,-0.000350,0.000041,15.181349,0.261875,0.965102,0.109811,0.005722,-9.055920,-0.157398,0.987535,0.239331,0.020022,94.903755,0.996340,-0.085482,0.442589,0.011627
950.000000,950.000000,0.303711,-1.022949,0.087402,950.000000,-21.108627,19.798279,-9.189606,950.000000,-5.964371,11.036575,-32.732727,15.296379,-8.812716,95.370674,0.281173,0.001328,0.000664,-0.953505,-0.000104,0.000233,0.108492,-0.004263,0.000143,-13.743289,1.236055,1.606010,6.430973,2.389025,0.846043,-4.426097,-0.048141,0.150170,-0.177958,-0.002604,-0.002431,0.318199,-0.001420,-0.000309,-0.931172,0.000008,0.000357,15.296379,0.263812,0.964574,0.115030,0.005219,-8.812716,-0.153205,0.988194,0.243203,0.003872,95.370674,0.995610,-0.093599,0.466919,0.024330
960.000000,960.000000,0.291992,-1.021484,0.082031,960.000000,-22.512436,24.192810,-9.799957,960.000000,-6.714371,11.786575,-32.732727,15.416636,-8.540786,95.874222,0.282584,0.001411,0.000083,-0.953546,-0.000041,0.000063,0.104384,-0.004107,0.000156,-15.012471,-1.269182,-2.505238,9.701844,3.270872,0.881847,-4.453420,-0.027323,0.020818,-0.181727,-0.003769,-0.001165,0.317246,-0.000953,0.000467,-0.930769,0.000403,0.000395,15.416636,0.265836,0.964018,0.120256,0.005226,-8.540786,-0.148513,0.988910,0.271931,0.028728,95.874222,0.994749,-0.102345,0.503548,0.036629
970.000000,970.000000,0.296875,-1.012207,0.071777,970.000000,-24.343491,25.291443,-11.264801,970.000000,-6.714371,9.986588,-32.732727,15.549914,-8.251518,96.381149,0.283595,0.001011,-0.000400,-0.953681,-0.000135,-0.000094,0.100332,-0.004053,0.000055,-15.066125,-0.053654,1.215528,9.505281,-0.196563,-3.467434,-5.278950,-0.825530,-0.798207,-0.185266,-0.003539,0.000230,0.316552,-0.000695,0.000258,-0.930307,0.000461,0.000058,15.549914,0.268078,0.963397,0.133279,0.013022,-8.251518,-0.143519,0.989648,0.289268,0.017337,96.381149,0.993805,-0.111142,0.506927,0.003380
980.000000,980.000000,0.291016,-1.029297,0.083984,980.000000,-24.892807,26.145935,-11.631012,980.000000,-5.814362,9.986588,-32.732727,15.684642,-7.957901,96.886856,0.284144,0.000549,-0.000462,-0.953927,-0.000246,-0.000111,0.096360,-0.003972,0.000081,-13.832246,1.233879,1.287533,9.055983,-0.449299,-0.252736,-4.963453,0.315497,1.141027,-0.187553,-0.002287,0.001252,0.314660,-0.001891,-0.001196,-0.930491,-0.000183,-0.000645,15.684642,0.270342,0.962764,0.134727,0.001449,-7.957901,-0.138445,0.990370,0.293618,0.004350,96.886856,0.992785,-0.119909,0.505707,-0.001221
990.000000,990.000000,0.289551,-1.029297,0.067383,990.000000,-27.334213,26.084900,-13.034821,990.000000,-5.364365,10.136581,-30.482727,15.830395,-7.641653,97.379456,0.284216,0.000072,-0.000477,-0.954283,-0.000356,-0.000110,0.092547,-0.003813,0.000159,-14.460875,-0.628629,-1.862508,7.734923,-1.321060,-0.871761,-5.648532,-0.685079,-1.000576,-0.187897,-0.000344,0.001944,0.311753,-0.002908,-0.001016,-0.931399,-0.000909,-0.000725,15.830395,0.272791,0.962073,0.145753,0.011025,-7.641653,-0.132977,0.991119,0.316248,0.022630,97.379456,0.991717,-0.128440,0.492599,-0.013107
1000.000000,1000.000000,0.291992,-1.032715,0.075195,1000.000000,-28.799057,25.169373,-14.438629,1000.000000,-5.364365,11.486588,-30.932724,15.986423,-7.312948,97.849083,0.283840,-0.000376,-0.000448,-0.954744,-0.000461,-0.000105,0.088871,-0.003676,0.000137,-14.047285,0.413589,1.042218,5.679598,-2.055325,-0.734265,-6.254018,-0.605486,0.079593,-0.186316,0.001581,0.001924,0.310003,-0.001750,0.001157,-0.932301,-0.000901,0.000007,15.986423,0.275410,0.961327,0.156029,0.010276,-7.312948,-0.127289,0.991866,0.328704,0.012456,97.849083,0.990631,-0.136564,0.469627,-0.022972
1010.000000,1010.000000,0.298340,-1.021484,0.059570,1010.000000,-30.569077,24.681091,-15.598297,1010.000000,-6.264359,11.486588,-30.932724,16.149839,-6.969164,98.300552,0.283215,-0.000625,-0.000249,-0.955256,-0.000511,-0.000050,0.085298,-0.003573,0.000103,-13.907694,0.139591,-0.273998,4.186243,-1.493355,0.561969,-6.550859,-0.296842,0.308644,-0.183892,0.002424,0.000843,0.310834,0.000831,0.002582,-0.932505,-0.000204,0.000697,16.149839,0.278150,0.960538,0.163416,0.007387,-6.969164,-0.121335,0.992612,0.343784,0.015079,98.300552,0.989524,-0.144366,0.451469,-0.018158
1020.000000,1020.000000,0.301758,-1.017578,0.064941,1020.000000,-32.949448,23.582458,-16.208649,1020.000000,-4.614365,10.136581,-30.782715,16.315126,-6.604711,98.728462,0.282596,-0.000619,0.000007,-0.955745,-0.000489,0.000022,0.081797,-0.003501,0.000072,-14.311245,-0.403551,-0.543142,2.220213,-1.966030,-0.472675,-6.272263,0.278596,0.575438,-0.181149,0.002743,0.000319,0.313231,0.002397,0.001566,-0.932240,0.000265,0.000470,16.315126,0.280920,0.959731,0.165287,0.001871,-6.604711,-0.115019,0.993363,0.364454,0.020670,98.728462,0.988419,-0.151752,0.427910,-0.023560
1030.000000,1030.000000,0.305176,-1.017090,0.069824,1030.000000,-34.841537,23.399353,-17.185211,1030.000000,-4.614365,11.036575,-32.432724,16.486057,-6.225003,99.140327,0.282154,-0.000442,0.000177,-0.956155,-0.000409,0.000080,0.078470,-0.003327,0.000175,-14.159343,0.151902,0.555453,1.288695,-0.931518,1.034512,-6.343950,-0.071687,-0.350283,-0.176961,0.004188,0.001444,0.315359,0.002129,-0.000268,-0.932327,-0.000087,-0.000352,16.486057,0.283782,0.958889,0.170931,0.005644,-6.225003,-0.108433,0.994104,0.379708,0.015254,99.140327,0.987302,-0.158853,0.411865,-0.016045
1040.000000,1040.000000,0.350586,-1.012695,0.044434,1040.000000,-36.550522,24.070740,-18.833160,1040.000000,-4.764359,11.036575,-32.432724,16.669764,-5.832347,99.542419,0.282260,0.000106,0.000548,-0.956378,-0.000224,0.000186,0.075302,-0.003168,0.000158,-13.791703,0.367640,0.215737,1.248867,-0.039828,0.891691,-7.027779,-0.683829,-0.612143,-0.170976,0.005985,0.001797,0.316879,0.001520,-0.000609,-0.932928,-0.000601,-0.000515,16.669764,0.286855,0.957974,0.183706,0.012775,-5.832347,-0.101618,0.994824,0.392655,0.012948,99.542419,0.986163,-0.165778,0.402092,-0.009773
1050.000000,1050.000000,0.349609,-1.028808,0.056641,1050.000000,-36.062241,25.352478,-20.603180,1050.000000,-6.564362,11.336578,-32.582718,16.868431,-5.448512,99.941353,0.283403,0.001143,0.001038,-0.956287,0.000091,0.000314,0.072089,-0.003213,-0.000045,-11.301427,2.490276,2.122637,1.791534,0.542667,0.582495,-7.743676,-0.715897,-0.032067,-0.165322,0.005654,-0.000331,0.318125,0.001246,-0.000273,-0.933523,-0.000595,0.000006,16.868431,0.290175,0.956974,0.198668,0.014961,-5.448512,-0.094951,0.995482,0.383836,-0.008820,99.941353,0.984985,-0.172640,0.398933,-0.003159
1060.000000,1060.000000,0.336914,-1.045410,0.072266,1060.000000,-36.306381,27.061462,-22.190094,1060.000000,-6.564362,13.436584,-32.582718,17.081015,-5.066341,100.345177,0.285415,0.002012,0.000868,-0.955915,0.000372,0.000282,0.069026,-0.003063,0.000150,-9.680772,1.620655,-0.869621,2.689970,0.898437,0.355770,-8.194294,-0.450618,0.265278,-0.162416,0.002906,-0.002748,0.320352,0.002227,0.000981,-0.933271,0.000252,0.000846,17.081015,0.293724,0.955890,0.212584,0.013916,-5.066341,-0.088309,0.996093,0.382171,-0.001665,100.345177,0.983744,-0.179578,0.403824,0.004890
1070.000000,1070.000000,0.341797,-1.051269,0.062500,1070.000000,-37.343979,30.601501,-23.532867,1070.000000,-4.764359,13.436584,-32.582718,17.305254,-4.678557,100.775253,0.287758,0.002343,0.000331,-0.955399,0.000517,0.000144,0.066401,-0.002625,0.000438,-8.920306,0.760466,-0.860189,5.253336,2.563366,1.664929,-8.342103,-0.147809,0.302809,-0.161368,0.001048,-0.001858,0.325354,0.005002,0.002775,-0.931722,0.001550,0.001298,17.305254,0.297462,0.954734,0.224239,0.011656,-4.678557,-0.081566,0.996668,0.387784,0.005613,100.775253,0.982368,-0.186957,0.430077,0.026253
1080.000000,1080.000000,0.352539,-1.050781,0.048340,1080.000000,-38.625717,33.775330,-24.570465,1080.000000,-4.014359,11.336578,-32.582718,17.538139,-4.283210,101.226761,0.290271,0.002514,0.000171,-0.954798,0.000600,0.000084,0.064050,-0.002350,0.000275,-8.424321,0.495985,-0.264481,7.228607,1.975270,-0.588096,-8.153909,0.188194,0.336003,-0.159107,0.002261,0.001213,0.331795,0.006441,0.001440,-0.929837,0.001885,0.000335,17.538139,0.301341,0.953517,0.232885,0.008646,-4.283210,-0.074687,0.997207,0.395347,0.007563,101.226761,0.980864,-0.194693,0.451508,0.021431
1090.000000,1090.000000,0.350586,-1.043457,0.037109,1090.000000,-41.311264,36.094666,-26.035309,1090.000000,-4.014359,13.136581,-32.882721,17.783949,-3.866608,101.687599,0.293003,0.002732,0.000218,-0.954123,0.000675,0.000075,0.061628,-0.002423,-0.000073,-9.281478,-0.857157,-1.353142,8.191257,0.962651,-1.012619,-8.359583,-0.205674,-0.393868,-0.154446,0.004660,0.002399,0.337395,0.005600,-0.000841,-0.928607,0.001230,-0.000655,17.783949,0.305429,0.952215,0.245810,0.012924,-3.866608,-0.067434,0.997724,0.416602,0.021255,101.687599,0.979267,-0.202575,0.460838,0.009331
1100.000000,1100.000000,0.361816,-1.027344,0.018066,1100.000000,-41.128159,38.841248,-27.256012,1100.000000,-4.614365,13.136581,-32.882721,18.040344,-3.456851,102.160233,0.295999,0.002996,0.000264,-0.953374,0.000749,0.000074,0.058838,-0.002790,-0.000367,-7.286693,1.994785,2.851942,9.449786,1.258529,0.295878,-8.282649,0.076934,0.282608,-0.148476,0.005970,0.001310,0.342655,0.005260,-0.000340,-0.927654,0.000953,-0.000277,18.040344,0.309687,0.950839,0.256395,0.010586,-3.456851,-0.060297,0.998181,0.409757,-0.006845,102.160233,0.977562,-0.210646,0.472633,0.011795
1110.000000,1110.000000,0.344238,-1.010254,0.011719,1110.000000,-44.240952,40.367126,-28.903961,1110.000000,-4.314362,12.986588,-31.682724,18.311588,-3.020819,102.632736,0.299238,0.003239,0.000243,-0.952564,0.000810,0.000061,0.055480,-0.003358,-0.000568,-8.586647,-1.299954,-3.294740,9.397945,-0.051841,-1.310369,-8.589639,-0.306990,-0.383924,-0.142698,0.005778,-0.000192,0.348231,0.005575,0.000315,-0.926484,0.001170,0.000217,18.311588,0.314184,0.949362,0.271244,0.014849,-3.020819,-0.052699,0.998610,0.436032,0.026275,102.632736,0.975792,-0.218701,0.472504,-0.000130
1120.000000,1120.000000,0.345215,-0.993164,-0.005371,1120.000000,-46.377182,42.747498,-29.697418,1120.000000,-4.464371,12.986588,-32.732727,18.589094,-2.567817,103.114227,0.302553,0.003315,0.000076,-0.951742,0.000822,0.000012,0.051470,-0.004010,-0.000653,-8.809503,-0.222856,1.077099,10.132359,0.734413,0.786254,-8.020709,0.568930,0.875919,-0.137702,0.004996,-0.000782,0.353642,0.005411,-0.000164,-0.925190,0.001294,0.000124,18.589094,0.318779,0.947829,0.277506,0.006262,-2.567817,-0.044802,0.998996,0.453002,0.016970,103.114227,0.973920,-0.226893,0.481491,0.008987
1130.000000,1130.000000,0.350586,-0.995117,-0.023438,1130.000000,-47.964096,45.066833,-32.016754,1130.000000,-4.464371,14.186584,-30.782715,18.887684,-2.102615,103.605156,0.305867,0.003314,-0.000001,-0.950929,0.000812,-0.000010,0.046676,-0.004794,-0.000784,-8.454676,0.354827,0.577682,10.707659,0.575300,-0.159113,-8.929414,-0.908705,-1.477634,-0.133643,0.004059,-0.000937,0.359240,0.005598,0.000187,-0.923627,0.001563,0.000268,18.887684,0.323714,0.946155,0.298590,0.021084,-2.102615,-0.036689,0.999327,0.465203,0.012201,103.605156,0.971940,-0.235230,0.490929,0.009438
1140.000000,1140.000000,0.348144,-0.990234,-0.009277,1140.000000,-49.856186,45.799255,-33.054352,1140.000000,-3.864365,14.186584,-30.782715,19.194378,-1.621563,104.091362,0.309182,0.003315,0.000002,-0.950112,0.000817,0.000005,0.041143,-0.005533,-0.000739,-8.389984,0.064692,-0.290135,9.675631,-1.032028,-1.607328,-8.501076,0.428338,1.337043,-0.130375,0.003267,-0.000792,0.366266,0.007026,0.001428,-0.921332,0.002295,0.000732,19.194378,0.328774,0.944409,0.306694,0.008104,-1.621563,-0.028298,0.999600,0.481052,0.015849,104.091362,0.969909,-0.243469,0.486206,-0.004723
1150.000000,1150.000000,0.331055,-0.996094,-0.021484,1150.000000,-51.870346,47.630310,-33.725739,1150.000000,-4.314362,14.786575,-32.432724,19.505186,-1.123258,104.584641,0.312294,0.003112,-0.000203,-0.949333,0.000779,-0.000038,0.035189,-0.005954,-0.000421,-8.415854,-0.025870,-0.090562,9.745677,0.070046,1.102075,-7.726737,0.774339,0.346001,-0.127408,0.002967,-0.000301,0.374626,0.008361,0.001335,-0.918380,0.002951,0.000656,19.505186,0.333892,0.942611,0.310808,0.004114,-1.123258,-0.019603,0.999808,0.498304,0.017252,104.584641,0.967777,-0.251810,0.493279,0.007072
1160.000000,1160.000000,0.328613,-1.000000,-0.009277,1160.000000,-54.311752,47.630310,-34.214020,1160.000000,-4.314362,14.786575,-31.982727,19.817610,-0.603674,105.067291,0.314877,0.002583,-0.000528,-0.948686,0.000647,-0.000132,0.029098,-0.006091,-0.000137,-8.816402,-0.400548,-0.374678,8.021459,-1.724218,-1.794265,-6.813889,0.912848,0.138508,-0.124809,0.002599,-0.000367,0.383188,0.008562,0.000201,-0.915199,0.003181,0.000230,19.817610,0.339027,0.940777,0.312424,0.001616,-0.603674,-0.010536,0.999945,0.519584,0.021280,105.067291,0.965621,-0.259953,0.482651,-0.010628
1170.000000,1170.000000,0.318848,-0.978027,-0.034668,1170.000000,-55.715561,49.034119,-34.519196,1170.000000,-5.364365,14.786575,-31.982727,20.129023,-0.073361,105.554344,0.316788,0.001911,-0.000673,-0.948218,0.000468,-0.000179,0.022986,-0.006112,-0.000021,-8.157072,0.659330,1.059878,7.756333,-0.265126,1.459093,-5.777760,1.036129,0.123282,-0.123438,0.001371,-0.001228,0.391260,0.008072,-0.000490,-0.911964,0.003235,0.000054,20.129023,0.344135,0.938920,0.311413,-0.001011,-0.073361,-0.001280,0.999999,0.530313,0.010729,105.554344,0.963377,-0.268152,0.487053,0.004402
1180.000000,1180.000000,0.337402,-0.988769,-0.030762,1180.000000,-58.156967,50.254822,-34.580231,1180.000000,-2.514359,14.486588,-31.982727,20.436422,0.477753,106.043739,0.318166,0.001378,-0.000533,-0.947886,0.000331,-0.000137,0.016787,-0.006199,-0.000087,-8.515485,-0.358413,-1.017743,7.309291,-0.447042,-0.181916,-4.574362,1.203397,0.167268,-0.122581,0.000857,-0.000514,0.398310,0.007051,-0.001021,-0.909023,0.002941,-0.000294,20.436422,0.349168,0.937060,0.307400,-0.004013,0.477753,0.008338,0.999965,0.551114,0.020800,106.043739,0.961051,-0.276371,0.489395,0.002342
1190.000000,1190.000000,0.332031,-0.997558,-0.046875,1190.000000,-59.621811,52.940369,-35.251617,1190.000000,-2.507034,14.036575,-31.682724,20.745491,1.039852,106.546379,0.319216,0.001050,-0.000327,-0.947624,0.000262,-0.000069,0.010453,-0.006334,-0.000135,-7.877120,0.638364,0.996777,8.273826,0.964534,1.411576,-4.039824,0.534538,-0.668859,-0.119552,0.003028,0.002171,0.403822,0.005512,-0.001539,-0.906992,0.002031,-0.000910,20.745491,0.354217,0.935163,0.309069,0.001669,1.039852,0.018148,0.999835,0.562099,0.010985,106.546379,0.958589,-0.284791,0.502640,0.013245
1200.000000,1200.000000,0.337402,-0.978027,-0.022949,1200.000000,-60.110092,54.954529,-35.800934,1200.000000,-2.507034,14.029251,-31.679306,21.054749,1.603091,107.051353,0.320047,0.000831,-0.000219,-0.947393,0.000232,-0.000030,0.004170,-0.006283,0.000050,-6.329143,1.547977,0.909613,8.482876,0.209050,-0.755484,-3.418705,0.621120,0.086582,-0.113832,0.005720,0.002691,0.407539,0.003717,-0.001795,-0.906065,0.000927,-0.001104,21.054749,0.359260,0.933238,0.309258,0.000189,1.603091,0.027976,0.999609,0.563239,0.001140,107.051353,0.956042,-0.293229,0.504974,0.002335
1210.000000,1210.000000,0.340820,-0.978027,-0.024414,1210.000000,-63.222885,57.273865,-35.434723,1210.000000,-1.607040,15.229263,-32.429306,21.355148,2.192625,107.558571,0.320807,0.000760,-0.000071,-0.947143,0.000249,0.000018,-0.001663,-0.005833,0.000451,-7.399323,-1.070180,-2.618158,8.934011,0.451135,0.242085,-1.961735,1.456969,0.835850,-0.106275,0.007557,0.001837,0.410083,0.002543,-0.001173,-0.905836,0.000230,-0.000697,21.355148,0.364148,0.931341,0.300400,-0.008858,2.192625,0.038259,0.999268,0.589535,0.026296,107.558571,0.953409,-0.301681,0.507217,0.002243
1220.000000,1220.000000,0.342285,-0.965332,-0.041504,1220.000000,-64.626694,58.982849,-35.373688,1220.000000,-1.607040,14.929260,-32.579300,21.649975,2.790520,108.059799,0.321652,0.000845,0.000085,-0.946832,0.000311,0.000061,-0.006945,-0.005282,0.000551,-6.715835,0.683488,1.753669,8.729201,-0.204809,-0.655944,-0.913144,1.048591,-0.408378,-0.096985,0.009291,0.001733,0.412339,0.002256,-0.000287,-0.905854,-0.000018,-0.000248,21.649975,0.368935,0.929455,0.294827,-0.005573,2.790520,0.048685,0.998814,0.597895,0.008360,108.059799,0.950733,-0.310009,0.501228,-0.005989
1230.000000,1230.000000,0.348633,-0.965820,-0.041016,1230.000000,-67.007065,61.180115,-36.106110,1230.000000,-2.507034,14.929260,-32.579300,21.947342,3.405794,108.559174,0.322677,0.001026,0.000181,-0.946434,0.000398,0.000088,-0.011907,-0.004961,0.000321,-6.999207,-0.283371,-0.966860,8.975882,0.246680,0.451489,-0.709234,0.203910,-0.844681,-0.087287,0.009698,0.000407,0.414263,0.001924,-0.000332,-0.905962,-0.000109,-0.000090,21.947342,0.373754,0.927528,0.297367,0.002541,3.405794,0.059407,0.998234,0.615274,0.017380,108.559174,0.947995,-0.318284,0.499374,-0.001854
1240.000000,1240.000000,0.341309,-0.998535,-0.022949,1240.000000,-68.044662,65.025330,-36.350250,1240.000000,-1.907043,15.529251,-31.379303,22.242550,4.024447,109.074226,0.323810,0.001132,0.000107,-0.945979,0.000455,0.000057,-0.016455,-0.004549,0.000413,-5.947615,1.051591,1.334963,10.744005,1.768124,1.521443,-0.052919,0.656315,0.452405,-0.078855,0.008432,-0.001265,0.416144,0.001882,-0.000042,-0.905873,0.000089,0.000198,22.242550,0.378528,0.925590,0.295208,-0.002159,4.024447,0.070182,0.997534,0.618653,0.003378,109.074226,0.945096,-0.326793,0.515053,0.015678
1250.000000,1250.000000,0.356445,-0.997070,-0.029785,1250.000000,-68.166733,68.626404,-37.082672,1250.000000,-1.907043,17.179260,-31.529297,22.540297,4.639001,109.604729,0.324831,0.001021,-0.000111,-0.945554,0.000425,-0.000030,-0.020316,-0.003860,0.000688,-4.320749,1.626866,0.575274,12.087666,1.343660,-0.424463,0.080731,0.133650,-0.522665,-0.071786,0.007069,-0.001363,0.419668,0.003523,0.001642,-0.904835,0.001038,0.000949,22.540297,0.383333,0.923610,0.297747,0.002539,4.639001,0.080877,0.996724,0.614554,-0.004098,109.604729,0.942030,-0.335529,0.530502,0.015450
1260.000000,1260.000000,0.335449,-1.006347,-0.042480,1260.000000,-66.701889,75.645447,-35.617828,1260.000000,-0.257034,16.879257,-31.229309,22.818693,5.228477,110.185669,0.325600,0.000769,-0.000253,-0.945214,0.000340,-0.000085,-0.023577,-0.003262,0.000599,-0.830866,3.489884,1.863018,16.540840,4.453175,3.109514,2.304492,2.223761,2.090111,-0.064868,0.006918,-0.000151,0.425918,0.006251,0.002728,-0.902433,0.002402,0.001363,22.818693,0.387816,0.921737,0.278397,-0.019350,5.228477,0.091128,0.995839,0.589476,-0.025078,110.185669,0.938579,-0.345063,0.580940,0.050438
1270.000000,1270.000000,0.349609,-0.995117,-0.043457,1270.000000,-66.030502,79.917908,-34.946442,1270.000000,-1.007034,17.029251,-32.729309,23.085587,5.803156,110.789192,0.326108,0.000508,-0.000261,-0.944961,0.000253,-0.000087,-0.026519,-0.002941,0.000320,1.372927,2.203792,-1.286092,17.925659,1.384819,-3.068356,3.571496,1.267004,-0.956757,-0.057116,0.007752,0.000835,0.433738,0.007819,0.001568,-0.899227,0.003206,0.000804,23.085587,0.392106,0.919920,0.266893,-0.011503,5.803156,0.101111,0.994875,0.574679,-0.014797,110.789192,0.934893,-0.354931,0.603523,0.022583
1280.000000,1280.000000,0.355469,-0.990722,-0.039551,1280.000000,-64.748764,84.678650,-35.434723,1280.000000,-1.007034,15.979263,-29.879303,23.352537,6.357039,111.419830,0.326586,0.000478,-0.000030,-0.944717,0.000244,-0.000009,-0.029200,-0.002682,0.000260,3.967983,2.595056,0.391264,19.592060,1.666401,0.281582,3.608006,0.036509,-1.230494,-0.049398,0.007718,-0.000034,0.441441,0.007703,-0.000116,-0.895930,0.003297,0.000091,23.352537,0.396387,0.918083,0.266951,0.000057,6.357039,0.110724,0.993851,0.553883,-0.020796,111.419830,0.930929,-0.365199,0.630638,0.027115
1290.000000,1290.000000,0.358887,-0.989258,-0.023926,1290.000000,-62.612534,88.462830,-34.458160,1290.000000,-0.107040,15.979263,-29.879303,23.605438,6.881625,112.068054,0.327272,0.000686,0.000208,-0.944407,0.000309,0.000065,-0.031431,-0.002231,0.000451,7.144761,3.176778,0.581722,20.108620,0.516560,-1.149841,5.028963,1.420958,1.384448,-0.042353,0.007045,-0.000672,0.448503,0.007063,-0.000641,-0.892777,0.003152,-0.000145,23.605438,0.400436,0.916325,0.252901,-0.014050,6.881625,0.119818,0.992796,0.524586,-0.029297,112.068054,0.926738,-0.375708,0.648224,0.017586
1300.000000,1300.000000,0.360351,-0.980469,-0.006348,1300.000000,-61.635971,91.880798,-32.932281,1300.000000,0.051712,18.379257,-30.779297,23.839512,7.387889,112.729935,0.328233,0.000961,0.000274,-0.944025,0.000382,0.000073,-0.032854,-0.001422,0.000808,8.915166,1.770405,-1.406374,20.154976,0.046356,-0.470203,6.835547,1.806584,0.385626,-0.035180,0.007173,0.000128,0.455695,0.007191,0.000129,-0.889441,0.003336,0.000184,23.839512,0.404176,0.914681,0.234074,-0.018827,7.387889,0.128586,0.991698,0.506264,-0.018322,112.729935,0.922336,-0.386388,0.661880,0.013657
1310.000000,1310.000000,0.371094,-0.976074,-0.019531,1310.000000,-61.635971,93.406677,-31.955719,1310.000000,0.051712,18.510208,-30.321487,24.060932,7.884632,113.387230,0.329545,0.001312,0.000351,-0.943551,0.000474,0.000092,-0.033335,-0.000482,0.000941,9.567230,0.652064,-1.118340,18.311365,-1.843611,-1.889967,7.937253,1.101706,-0.704878,-0.027708,0.007472,0.000298,0.464318,0.008623,0.001432,-0.885235,0.004206,0.000869,24.060932,0.407708,0.913112,0.221420,-0.012653,7.884632,0.137179,0.990546,0.496743,-0.009521,113.387230,0.917843,-0.396943,0.657295,-0.004585
1320.000000,1320.000000,0.371094,-0.955078,-0.023438,1320.000000,-61.513901,95.054626,-31.772614,1320.000000,0.051712,18.510208,-30.321487,24.278294,8.370086,114.042503,0.331327,0.001782,0.000470,-0.942932,0.000619,0.000145,-0.033183,0.000152,0.000634,10.244467,0.677237,0.025172,16.672075,-1.639290,0.204321,8.156318,0.219065,-0.882640,-0.020538,0.007170,-0.000302,0.474320,0.010002,0.001379,-0.880113,0.005122,0.000916,24.278294,0.411169,0.911559,0.217361,-0.004059,8.370086,0.145567,0.989348,0.485454,-0.011289,114.042503,0.913243,-0.407414,0.655273,-0.002022
1330.000000,1330.000000,0.368652,-0.947265,-0.019531,1330.000000,-61.880112,95.542908,-32.016754,1330.000000,0.501724,18.960220,-29.871490,24.496450,8.848853,114.685455,0.333594,0.002268,0.000486,-0.942150,0.000783,0.000164,-0.032690,0.000494,0.000342,10.358349,0.113882,-0.563354,13.999893,-2.672182,-1.032892,7.917256,-0.239061,-0.458127,-0.013900,0.006637,-0.000533,0.484823,0.010503,0.000501,-0.874502,0.005611,0.000489,24.496450,0.414637,0.909987,0.218157,0.000795,8.848853,0.153828,0.988098,0.478767,-0.006687,114.685455,0.908614,-0.417636,0.642952,-0.012321
1340.000000,1340.000000,0.401855,-0.939941,-0.031738,1340.000000,-60.171127,95.970154,-32.871246,1340.000000,0.501724,18.960220,-29.271484,24.722094,9.300522,115.316650,0.336457,0.002863,0.000595,-0.941154,0.000996,0.000213,-0.032018,0.000672,0.000178,12.408420,2.050071,1.936189,11.443626,-2.556267,0.115915,7.084776,-0.832480,-0.593419,-0.007638,0.006262,-0.000375,0.495520,0.010697,0.000194,-0.868563,0.005939,0.000328,24.722094,0.418217,0.908347,0.225643,0.007486,9.300522,0.161613,0.986854,0.451669,-0.027099,115.316650,0.903958,-0.427621,0.631195,-0.011757
1350.000000,1350.000000,0.410644,-0.940429,-0.018066,1350.000000,-57.973862,96.153259,-33.481598,1350.000000,1.101715,18.960220,-29.271484,24.953787,9.720779,115.934425,0.340226,0.003769,0.000906,-0.939823,0.001331,0.000336,-0.031279,0.000739,0.000067,14.704359,2.295939,0.245869,8.827929,-2.615697,-0.059430,6.529836,-0.554940,0.277541,-0.001524,0.006114,-0.000148,0.506058,0.010538,-0.000159,-0.862498,0.006065,0.000126,24.953787,0.421887,0.906648,0.231693,0.006050,9.720779,0.168847,0.985642,0.420258,-0.031411,115.934425,0.899295,-0.437342,0.617775,-0.013420
1360.000000,1360.000000,0.423828,-0.944336,-0.011230,1360.000000,-56.264877,97.434998,-33.542633,1360.000000,0.951721,20.010208,-29.571487,25.187269,10.114808,116.549881,0.345008,0.004782,0.001013,-0.938109,0.001714,0.000383,-0.030341,0.000938,0.000200,16.282461,1.578102,-0.717837,7.452161,-1.375768,1.239929,6.522850,-0.006987,0.547953,0.004610,0.006134,0.000020,0.516154,0.010096,-0.000442,-0.856483,0.006015,-0.000050,25.187269,0.425578,0.904922,0.233482,0.001789,10.114808,0.175621,0.984458,0.394029,-0.026229,116.549881,0.894546,-0.446977,0.615456,-0.002319
1370.000000,1370.000000,0.435058,-0.935547,0.000488,1370.000000,-53.701401,98.899841,-34.458160,1370.000000,0.951721,21.660217,-30.021484,25.432034,10.474252,117.165833,0.350729,0.005721,0.000939,-0.936028,0.002081,0.000367,-0.028979,0.001361,0.000423,18.482218,2.199757,0.621655,6.340355,-1.111806,0.263962,5.674450,-0.848400,-0.841413,0.010422,0.005812,-0.000322,0.526422,0.010268,0.000171,-0.850160,0.006324,0.000309,25.432034,0.429440,0.903095,0.244764,0.011282,10.474252,0.181794,0.983337,0.359444,-0.034585,117.165833,0.889689,-0.456567,0.615952,0.000496
1380.000000,1380.000000,0.423828,-0.944336,0.038086,1380.000000,-49.856186,100.852966,-33.725739,1380.000000,4.401718,21.660217,-30.021484,25.672588,10.786267,117.786797,0.357166,0.006437,0.000716,-0.933656,0.002373,0.000292,-0.026821,0.002158,0.000797,21.651140,3.168922,0.969166,5.766182,-0.574172,0.537634,6.453077,0.778627,1.627027,0.017382,0.006960,0.001148,0.537347,0.010925,0.000658,-0.843182,0.006978,0.000654,25.672588,0.433228,0.901284,0.240555,-0.004210,10.786267,0.187146,0.982332,0.312016,-0.047428,117.786797,0.884688,-0.466183,0.620964,0.005013
1390.000000,1390.000000,0.408203,-0.943359,0.044434,1390.000000,-47.048569,102.684021,-32.627106,1390.000000,3.655136,21.510208,-28.821487,25.905622,11.060425,118.408173,0.363754,0.006588,0.000151,-0.931201,0.002455,0.000082,-0.023414,0.003408,0.001250,23.476305,1.825165,-1.343758,5.102274,-0.663908,-0.089736,7.491414,1.038337,0.259709,0.027925,0.010543,0.003583,0.548420,0.011073,0.000148,-0.835737,0.007446,0.000468,25.905622,0.436890,0.899515,0.233034,-0.007521,11.060425,0.191844,0.981425,0.274158,-0.037858,118.408173,0.879581,-0.475750,0.621376,0.000412
1400.000000,1400.000000,0.392090,-0.942871,0.055664,1400.000000,-42.165756,103.599548,-32.016754,1400.000000,3.655136,21.034332,-27.461243,26.135479,11.275492,119.018784,0.369848,0.006094,-0.000494,-0.928904,0.002297,-0.000158,-0.018688,0.004726,0.001318,27.042591,3.566286,1.741121,3.599792,-1.502482,-0.838573,7.946097,0.454683,-0.583654,0.040987,0.013062,0.002520,0.559198,0.010778,-0.000295,-0.828020,0.007716,0.000271,26.135479,0.440495,0.897755,0.229856,-0.003178,11.275492,0.195527,0.980698,0.215067,-0.059091,119.018784,0.874461,-0.485096,0.610611,-0.010765
1410.000000,1410.000000,0.379883,-0.943847,0.085449,1410.000000,-37.771225,103.111267,-28.293610,1410.000000,3.505142,21.034332,-27.461243,26.330547,11.435782,119.605011,0.374981,0.005133,-0.000961,-0.926946,0.001958,-0.000338,-0.012654,0.006034,0.001308,29.736406,2.693815,-0.872471,0.868651,-2.731141,-1.228659,11.309615,3.363518,2.908835,0.054199,0.013212,0.000150,0.569462,0.010264,-0.000514,-0.820229,0.007791,0.000075,26.330547,0.443549,0.896250,0.195068,-0.034788,11.435782,0.198270,0.980148,0.160291,-0.054776,119.605011,0.869452,-0.494018,0.586227,-0.024384
1420.000000,1420.000000,0.376953,-0.955566,0.084961,1420.000000,-34.231186,99.998474,-25.485992,1420.000000,5.605133,21.334335,-29.411240,26.499010,11.549053,120.140938,0.378895,0.003914,-0.001219,-0.925425,0.001521,-0.000437,-0.005266,0.007388,0.001354,31.271456,1.535049,-1.158766,-4.144019,-5.012670,-2.281528,13.468676,2.159060,-1.204458,0.067498,0.013298,0.000086,0.578318,0.008856,-0.001408,-0.813014,0.007215,-0.000577,26.499010,0.446182,0.894942,0.168463,-0.026606,11.549053,0.200207,0.979754,0.113271,-0.047020,120.140938,0.864793,-0.502129,0.535927,-0.050301
1430.000000,1430.000000,0.376953,-0.919922,0.081055,1430.000000,-32.339096,95.848083,-23.654938,1430.000000,4.705139,23.884338,-27.911240,26.649576,11.631120,120.616173,0.381655,0.002760,-0.001154,-0.924300,0.001125,-0.000396,0.003126,0.008392,0.001004,30.981487,-0.289968,-1.825018,-9.707338,-5.563320,-0.550650,14.459145,0.990469,-1.168591,0.081409,0.013911,0.000613,0.586004,0.007686,-0.001170,-0.806208,0.006806,-0.000409,26.649576,0.448533,0.893766,0.150566,-0.017897,11.631120,0.201610,0.979466,0.082067,-0.031204,120.616173,0.860598,-0.509284,0.475235,-0.060692
1440.000000,1440.000000,0.392578,-0.888183,0.069336,1440.000000,-32.766342,91.941833,-20.908356,1440.000000,4.705139,21.484329,-28.061234,26.772860,11.704853,121.034874,0.383762,0.002107,-0.000653,-0.923355,0.000944,-0.000181,0.011889,0.008763,0.000371,28.380556,-2.600931,-2.310963,-14.527428,-4.820089,0.743230,16.186502,1.727358,0.736889,0.094660,0.013251,-0.000660,0.593581,0.007577,-0.000109,-0.799188,0.007020,0.000215,26.772860,0.450455,0.892799,0.123283,-0.027283,11.704853,0.202870,0.979206,0.073733,-0.008333,121.034874,0.856854,-0.515560,0.418701,-0.056534
1450.000000,1450.000000,0.396484,-0.877929,0.044922,1450.000000,-33.376694,90.476990,-17.185211,1450.000000,5.155136,21.484329,-28.061234,26.859818,11.772630,121.422798,0.385826,0.002064,-0.000044,-0.922348,0.001007,0.000063,0.020301,0.008412,-0.000351,25.718374,-2.662182,-0.061251,-16.547487,-2.020060,2.800030,18.639954,2.453451,0.726093,0.106260,0.011600,-0.001651,0.599951,0.006371,-0.001206,-0.792948,0.006240,-0.000781,26.859818,0.451809,0.892115,0.086958,-0.036325,11.772630,0.204028,0.978965,0.067777,-0.005957,121.422798,0.853343,-0.521349,0.387924,-0.030777
1460.000000,1460.000000,0.399902,-0.867187,0.044922,1460.000000,-33.620834,89.561462,-16.208649,1460.000000,6.355133,21.784332,-28.061234,26.938438,11.832145,121.785255,0.388149,0.002322,0.000259,-0.921179,0.001169,0.000162,0.027755,0.007454,-0.000958,23.535656,-2.182718,0.479464,-17.807819,-1.260332,0.759727,18.187141,-0.452812,-2.906263,0.117108,0.010848,-0.000752,0.604181,0.004230,-0.002140,-0.788195,0.004754,-0.001486,26.938438,0.453033,0.891494,0.078621,-0.008337,11.832145,0.205045,0.978752,0.059515,-0.008262,121.785255,0.850028,-0.526737,0.362457,-0.025467
1470.000000,1470.000000,0.409180,-0.872070,0.035156,1470.000000,-33.132553,88.340759,-15.842438,1470.000000,6.355133,22.834335,-27.311234,27.015316,11.877857,122.118927,0.390818,0.002670,0.000347,-0.919840,0.001339,0.000170,0.034005,0.006250,-0.001204,22.150179,-1.385477,0.797241,-19.185614,-1.377794,-0.117462,17.120275,-1.066866,-0.614054,0.128154,0.011046,0.000199,0.607371,0.003189,-0.001041,-0.784014,0.004181,-0.000573,27.015316,0.454229,0.890885,0.076878,-0.001743,11.877857,0.205826,0.978589,0.045712,-0.013803,122.118927,0.846946,-0.531678,0.333672,-0.028786
1480.000000,1480.000000,0.404297,-0.883301,0.038086,1480.000000,-30.935287,84.983826,-14.560699,1480.000000,7.105133,22.834335,-27.311234,27.081867,11.894814,122.403488,0.393772,0.002954,0.000284,-0.918380,0.001460,0.000121,0.039014,0.005009,-0.001241,22.433517,0.283339,1.668816,-22.417162,-3.231548,-1.853754,16.955168,-0.165108,0.901758,0.139482,0.011328,0.000282,0.610765,0.003394,0.000205,-0.779430,0.004584,0.000403,27.081867,0.455263,0.890357,0.066551,-0.010326,11.894814,0.206116,0.978528,0.016957,-0.028755,122.403488,0.844295,-0.535878,0.284561,-0.049110
1490.000000,1490.000000,0.419922,-0.894043,0.053223,1490.000000,-28.005600,82.359314,-12.973785,1490.000000,6.955139,22.384338,-27.311234,27.135468,11.877684,122.647400,0.396856,0.003083,0.000130,-0.916874,0.001506,0.000046,0.042990,0.003975,-0.001034,23.308588,0.875071,0.591732,-24.588648,-2.171486,1.060062,17.031942,0.076775,0.241882,0.150819,0.011337,0.000009,0.614322,0.003558,0.000164,-0.774507,0.004923,0.000339,27.135468,0.456096,0.889931,0.053600,-0.012951,11.877684,0.205823,0.978589,-0.017131,-0.034088,122.647400,0.842006,-0.539468,0.243912,-0.040649
1500.000000,1500.000000,0.405762,-0.882324,0.062500,1500.000000,-23.733139,81.260681,-9.006500,1500.000000,6.955139,23.284332,-27.761230,27.153078,11.814721,122.866989,0.399964,0.003108,0.000025,-0.915358,0.001516,0.000010,0.046365,0.003376,-0.000600,25.305599,1.997011,1.121941,-25.023020,-0.434372,1.737114,19.314756,2.282814,2.206039,0.161452,0.010633,-0.000704,0.617526,0.003204,-0.000354,-0.769802,0.004705,-0.000217,27.153078,0.456369,0.889790,0.017611,-0.035990,11.814721,0.204748,0.978815,-0.062963,-0.045832,122.866989,0.839933,-0.542691,0.219589,-0.024323
1510.000000,1510.000000,0.401855,-0.898926,0.074707,1510.000000,-20.376205,81.565857,-4.367828,1510.000000,7.105133,23.284332,-27.761230,27.128593,11.716068,123.077774,0.402868,0.002904,-0.000204,-0.913917,0.001441,-0.000075,0.049532,0.003167,-0.000209,26.161449,0.855850,-1.141161,-23.983101,1.039919,1.474291,21.972702,2.657946,0.375132,0.170622,0.009170,-0.001463,0.620456,0.002930,-0.000274,-0.765456,0.004346,-0.000359,27.128593,0.455989,0.889985,-0.024485,-0.042095,11.716068,0.203062,0.979166,-0.098653,-0.035690,123.077774,0.837931,-0.545777,0.210785,-0.008804
1520.000000,1520.000000,0.403809,-0.877441,0.060547,1520.000000,-19.704819,82.420349,0.755310,1520.000000,5.605133,22.834335,-27.311234,27.057634,11.608886,123.287315,0.405389,0.002521,-0.000383,-0.912630,0.001287,-0.000154,0.052597,0.003064,-0.000103,24.276834,-1.884615,-2.740465,-22.415529,1.567572,0.527653,24.785042,2.812340,0.154394,0.177427,0.006805,-0.002365,0.623196,0.002740,-0.000190,-0.761674,0.003782,-0.000564,27.057634,0.454887,0.890549,-0.070959,-0.046474,11.608886,0.201230,0.979544,-0.107183,-0.008530,123.287315,0.835929,-0.548838,0.209541,-0.001244
1530.000000,1530.000000,0.401855,-0.867187,0.066895,1530.000000,-18.789291,83.641052,4.905701,1530.000000,5.607086,23.584335,-24.761230,26.950315,11.491248,123.503082,0.407631,0.002243,-0.000278,-0.911463,0.001167,-0.000120,0.055424,0.002828,-0.000237,22.694250,-1.582584,0.302031,-20.546240,1.869289,0.301718,26.334131,1.549089,-1.263250,0.180917,0.003490,-0.003315,0.626634,0.003439,0.000699,-0.758023,0.003651,-0.000131,26.950315,0.453218,0.891400,-0.107319,-0.036360,11.491248,0.199218,0.979955,-0.117638,-0.010455,123.503082,0.833856,-0.551982,0.215767,0.006226
1540.000000,1540.000000,0.408203,-0.849121,0.073242,1540.000000,-20.559311,82.481384,7.713318,1540.000000,8.157089,23.571152,-24.757812,26.820429,11.389935,123.704224,0.409796,0.002165,-0.000078,-0.910328,0.001135,-0.000032,0.058046,0.002622,-0.000206,18.591627,-4.102623,-2.520039,-21.035173,-0.488934,-2.358223,26.367579,0.033447,-1.515642,0.182940,0.002023,-0.001467,0.632003,0.005368,0.001929,-0.753064,0.004958,0.001307,26.820429,0.451196,0.892425,-0.129887,-0.022568,11.389935,0.197485,0.980306,-0.101313,0.016325,123.704224,0.831913,-0.554906,0.201141,-0.014626
1550.000000,1550.000000,0.439941,-0.839844,0.075195,1550.000000,-22.939682,79.978943,9.239197,1550.000000,7.557083,23.121155,-25.057816,26.681395,11.310651,123.876732,0.412281,0.002484,0.000319,-0.909038,0.001290,0.000155,0.060613,0.002567,-0.000054,14.183743,-4.407884,-0.305261,-22.687468,-1.652294,-1.163361,25.072508,-1.295071,-1.328518,0.186438,0.003498,0.001475,0.638588,0.006586,0.001217,-0.746623,0.006441,0.001483,26.681395,0.449029,0.893517,-0.139034,-0.009148,11.310651,0.196128,0.980578,-0.079285,0.022028,123.876732,0.830239,-0.557408,0.172508,-0.028633
1560.000000,1560.000000,0.440430,-0.822265,0.070801,1560.000000,-25.930405,76.927185,9.605408,1560.000000,7.557083,22.521149,-24.307816,26.545778,11.258970,124.013535,0.415566,0.003285,0.000801,-0.907370,0.001668,0.000378,0.063120,0.002506,-0.000061,9.513213,-4.670530,-0.262647,-24.638992,-1.951525,-0.299231,22.683535,-2.388973,-1.093903,0.191465,0.005028,0.001530,0.644885,0.006297,-0.000288,-0.739908,0.006715,0.000274,26.545778,0.446913,0.894578,-0.135616,0.003418,11.258970,0.195244,0.980755,-0.051681,0.027604,124.013535,0.828905,-0.559389,0.136803,-0.035706
1570.000000,1570.000000,0.440430,-0.814453,0.075195,1570.000000,-27.700424,73.265076,8.689880,1570.000000,7.857086,22.521149,-24.307816,26.427217,11.222484,124.107933,0.419749,0.004183,0.000898,-0.905273,0.002097,0.000429,0.065503,0.002384,-0.000123,6.371497,-3.141716,1.528814,-26.915314,-2.276321,-0.324797,19.185926,-3.497608,-1.108635,0.197160,0.005695,0.000668,0.650304,0.005419,-0.000879,-0.733643,0.006265,-0.000450,26.427217,0.445061,0.895500,-0.118561,0.017056,11.222484,0.194619,0.980879,-0.036487,0.015194,124.107933,0.827983,-0.560754,0.094398,-0.042404
1580.000000,1580.000000,0.416016,-0.827148,0.053223,1580.000000,-29.226303,71.678162,8.750916,1580.000000,11.007095,25.071152,-24.457825,26.316414,11.198827,124.178368,0.424411,0.004662,0.000479,-0.902943,0.002331,0.000234,0.067595,0.002092,-0.000291,3.706357,-2.665139,0.476577,-26.911371,0.003942,2.280264,16.847326,-2.338600,1.159008,0.204814,0.007654,0.001959,0.655247,0.004943,-0.000476,-0.727119,0.006524,0.000259,26.316414,0.443328,0.896359,-0.110804,0.007757,11.198827,0.194214,0.980959,-0.023657,0.012830,124.178368,0.827293,-0.561771,0.070435,-0.023964
1590.000000,1590.000000,0.416504,-0.849609,0.055176,1590.000000,-28.982162,70.823669,9.666443,1590.000000,8.302200,23.571152,-24.757812,26.204575,11.171152,124.229492,0.428870,0.004458,-0.000204,-0.900721,0.002222,-0.000108,0.069088,0.001493,-0.000600,2.946914,-0.759443,1.905696,-26.105480,0.805891,0.801949,15.461259,-1.386067,0.952533,0.214920,0.010106,0.002452,0.660140,0.004893,-0.000050,-0.719739,0.007380,0.000856,26.204575,0.441577,0.897223,-0.111839,-0.001036,11.171152,0.193740,0.981053,-0.027675,-0.004018,124.229492,0.826791,-0.562509,0.051125,-0.019310
1600.000000,1600.000000,0.387207,-0.885254,0.064941,1600.000000,-28.127670,69.419861,11.924744,1600.000000,8.302200,23.247223,-24.900009,26.077364,11.134371,124.256058,0.432395,0.003525,-0.000934,-0.898966,0.001755,-0.000467,0.069969,0.000880,-0.000612,2.824734,-0.122180,0.637263,-25.794907,0.310574,-0.495317,15.419038,-0.042221,1.343846,0.224505,0.009584,-0.000522,0.664228,0.004088,-0.000805,-0.713021,0.006718,-0.000662,26.077364,0.439584,0.898201,-0.127211,-0.015371,11.134371,0.193111,0.981177,-0.036781,-0.009107,124.256058,0.826530,-0.562892,0.026566,-0.024559
1610.000000,1610.000000,0.346680,-0.916992,0.067871,1610.000000,-25.503159,67.222595,17.051697,1610.000000,10.102203,23.247223,-24.900009,25.904556,11.071841,124.250847,0.434027,0.001632,-0.001893,-0.898137,0.000829,-0.000926,0.070506,0.000537,-0.000343,4.395368,1.570634,1.692814,-26.172241,-0.377335,-0.687908,18.066132,2.647094,2.689315,0.232596,0.008091,-0.001493,0.666689,0.002460,-0.001628,-0.708114,0.004907,-0.001812,25.904556,0.436873,0.899523,-0.172808,-0.045597,11.071841,0.192040,0.981387,-0.062530,-0.025748,124.250847,0.826581,-0.562817,-0.005211,-0.031776
1620.000000,1620.000000,0.335449,-0.941406,0.079590,1620.000000,-24.404526,64.292908,23.521423,1620.000000,11.752213,24.747223,-24.600006,25.670427,10.999283,124.204132,0.432936,-0.001091,-0.002723,-0.898628,-0.000491,-0.001320,0.070949,0.000444,-0.000093,4.356282,-0.039086,-1.609720,-27.119190,-0.946949,-0.569614,21.704311,3.638180,0.991086,0.241809,0.009213,0.001122,0.667852,0.001163,-0.001298,-0.703919,0.004194,-0.000712,25.670427,0.433194,0.901301,-0.234129,-0.061321,10.999283,0.190797,0.981630,-0.072558,-0.010029,124.204132,0.827040,-0.562143,-0.046715,-0.041504
1630.000000,1630.000000,0.326660,-0.909668,0.089355,1630.000000,-24.343491,61.241150,29.380798,1630.000000,11.752213,23.547226,-24.750000,25.378748,10.926941,124.110909,0.429139,-0.003797,-0.002706,-0.900396,-0.001768,-0.001277,0.071592,0.000643,0.000199,3.311551,-1.044731,-1.005645,-27.999912,-0.880722,0.066227,24.367313,2.663002,-0.975178,0.253555,0.011746,0.002532,0.668261,0.000409,-0.000754,-0.699384,0.004535,0.000341,25.378748,0.428600,0.903494,-0.291679,-0.057550,10.926941,0.189557,0.981870,-0.072342,0.000216,124.110909,0.827954,-0.560797,-0.093224,-0.046509
1640.000000,1640.000000,0.326660,-0.904297,0.088379,1640.000000,-22.939682,56.480408,33.592224,1640.000000,12.652206,23.547226,-24.750000,25.044279,10.841232,123.951309,0.423324,-0.005816,-0.002019,-0.903062,-0.002665,-0.000897,0.072642,0.001049,0.000406,3.627554,0.316004,1.360735,-30.334663,-2.334751,-1.454029,25.135485,0.768171,-1.894831,0.267310,0.013755,0.002010,0.667551,-0.000709,-0.001118,-0.694925,0.004459,-0.000077,25.044279,0.423319,0.905981,-0.334469,-0.042789,10.841232,0.188088,0.982152,-0.085709,-0.013367,123.951309,0.829512,-0.558488,-0.159599,-0.066376
1650.000000,1650.000000,0.339355,-0.915527,0.105469,1650.000000,-21.657944,50.987244,36.338806,1650.000000,11.302200,22.947220,-24.300003,24.680691,10.743059,123.717316,0.416255,-0.007069,-0.001253,-0.906217,-0.003155,-0.000490,0.074183,0.001541,0.000492,3.786216,0.158662,-0.157341,-33.056873,-2.722210,-0.387459,24.342175,-0.793310,-1.561481,0.281598,0.014288,0.000533,0.665590,-0.001961,-0.001252,-0.691153,0.003772,-0.000687,24.680691,0.417561,0.908649,-0.363588,-0.029119,10.743059,0.186405,0.982473,-0.098173,-0.012465,123.717316,0.831786,-0.555096,-0.233994,-0.074394
1660.000000,1660.000000,0.350586,-0.918945,0.125977,1660.000000,-22.146225,45.555115,38.414001,1660.000000,11.302200,23.547226,-23.700012,24.294483,10.649117,123.412109,0.408615,-0.007639,-0.000571,-0.909498,-0.003281,-0.000126,0.076464,0.002280,0.000739,2.223981,-1.562235,-1.720898,-35.364330,-2.307457,0.414753,22.882122,-1.460052,-0.666742,0.294342,0.012743,-0.001545,0.663347,-0.002244,-0.000283,-0.687993,0.003160,-0.000613,24.294483,0.411427,0.911443,-0.386208,-0.022619,10.649117,0.184794,0.982777,-0.093942,0.004231,123.412109,0.834732,-0.550657,-0.305206,-0.071213
1670.000000,1670.000000,0.375488,-0.908203,0.119141,1670.000000,-23.061752,41.282654,38.597107,1670.000000,11.902206,23.547226,-23.700012,23.904953,10.562404,123.051414,0.401158,-0.007458,0.000182,-0.912542,-0.003043,0.000238,0.079626,0.003162,0.000882,0.377491,-1.846491,-0.284255,-36.232689,-0.868359,1.439098,19.649876,-3.232246,-1.772194,0.304838,0.010496,-0.002247,0.661793,-0.001554,0.000690,-0.684912,0.003081,-0.000079,23.904953,0.405221,0.914219,-0.389530,-0.003323,10.562404,0.183306,0.983056,-0.086714,0.007228,123.051414,0.838181,-0.545391,-0.360695,-0.055489
1680.000000,1680.000000,0.391601,-0.908691,0.113281,1680.000000,-23.672104,39.634705,39.512634,1680.000000,11.902206,24.747223,-23.100006,23.506250,10.479050,122.664619,0.394665,-0.006493,0.000965,-0.915037,-0.002495,0.000548,0.083349,0.003724,0.000562,-1.021516,-1.399007,0.447484,-34.379845,1.852844,2.721203,17.318790,-2.331085,0.901161,0.313631,0.008793,-0.001703,0.661545,-0.000247,0.001307,-0.681170,0.003742,0.000661,23.506250,0.398849,0.917017,-0.398703,-0.009172,10.479050,0.181876,0.983321,-0.083354,0.003360,122.664619,0.841844,-0.539721,-0.386795,-0.026100
1690.000000,1690.000000,0.389160,-0.914062,0.094727,1690.000000,-25.197983,41.221619,40.794373,1690.000000,11.902206,23.997223,-21.750000,23.096685,10.407923,122.286301,0.389523,-0.005142,0.001351,-0.916892,-0.001855,0.000640,0.087064,0.003715,-0.000009,-3.173455,-2.151939,-0.752932,-29.460337,4.919508,3.066664,15.470757,-1.848034,0.483051,0.321056,0.007425,-0.001368,0.663249,0.001703,0.001950,-0.676036,0.005135,0.001393,23.096685,0.392284,0.919844,-0.409565,-0.010862,10.407923,0.180655,0.983546,-0.071127,0.012227,122.286301,0.845390,-0.534150,-0.378319,0.008476
1700.000000,1700.000000,0.401367,-0.917969,0.094727,1700.000000,-23.550034,44.578552,42.564392,1700.000000,13.702209,23.997223,-21.750000,22.673330,10.331396,121.933426,0.385700,-0.003823,0.001319,-0.918196,-0.001304,0.000552,0.090287,0.003223,-0.000491,-3.378953,-0.205498,1.946441,-23.154682,6.305655,1.386147,14.188452,-1.282305,0.565729,0.328815,0.007759,0.000334,0.666460,0.003211,0.001508,-0.669113,0.006923,0.001788,22.673330,0.385477,0.922718,-0.423355,-0.013790,10.331396,0.179341,0.983787,-0.076527,-0.005400,121.933426,0.848663,-0.528934,-0.352875,0.025444
1710.000000,1710.000000,0.416992,-0.942383,0.110840,1710.000000,-21.718979,51.963806,45.249939,1710.000000,13.702209,25.197220,-22.050003,22.229059,10.222075,121.641937,0.383147,-0.002552,0.001271,-0.918996,-0.000800,0.000504,0.092976,0.002688,-0.000535,-0.810220,2.568733,2.774230,-13.444403,9.710279,3.404625,13.837300,-0.351151,0.931153,0.338496,0.009681,0.001922,0.670179,0.003719,0.000508,-0.660515,0.008598,0.001675,22.229059,0.378310,0.925679,-0.444271,-0.020916,10.222075,0.177464,0.984127,-0.109322,-0.032795,121.641937,0.851343,-0.524609,-0.291489,0.061386
1720.000000,1720.000000,0.422363,-0.957031,0.091797,1720.000000,-20.437241,55.137634,45.249939,1720.000000,14.752213,25.197220,-22.050003,21.792095,10.099662,121.367584,0.381802,-0.001346,0.001206,-0.919327,-0.000331,0.000469,0.095211,0.002235,-0.000453,-0.266695,0.543525,-2.025208,-8.537338,4.907064,-4.803215,10.894876,-2.942425,-2.591273,0.349180,0.010684,0.001003,0.674190,0.004010,0.000291,-0.650801,0.009714,0.001117,21.792095,0.371240,0.928537,-0.436964,0.007307,10.099662,0.175361,0.984504,-0.122413,-0.013091,121.367584,0.853845,-0.520527,-0.274353,0.017136
1730.000000,1730.000000,0.397461,-0.970703,0.102051,1730.000000,-19.277573,56.297302,44.273376,1730.000000,14.002213,24.447220,-22.500000,21.372837,9.966276,121.090088,0.381255,-0.000547,0.000799,-0.919379,-0.000052,0.000279,0.096884,0.001673,-0.000562,0.114859,0.381554,-0.161970,-5.941864,2.595475,-2.311590,7.227335,-3.667541,-0.725116,0.359641,0.010461,-0.000223,0.677878,0.003688,-0.000322,-0.641202,0.009599,-0.000115,21.372837,0.364435,0.931229,-0.419258,0.017706,9.966276,0.173068,0.984910,-0.133386,-0.010973,121.090088,0.856356,-0.516385,-0.277496,-0.003143
1740.000000,1740.000000,0.376465,-0.989746,0.110352,1740.000000,-18.972397,56.419373,43.968201,1740.000000,16.252213,23.997223,-22.050003,20.964340,9.831048,120.798187,0.380715,-0.000539,0.000008,-0.919471,-0.000092,-0.000039,0.098127,0.001243,-0.000430,-0.353821,-0.468680,-0.850234,-4.537121,1.404742,-1.190732,4.486524,-2.740811,0.926730,0.370151,0.010510,0.000048,0.680068,0.002190,-0.001498,-0.632847,0.008355,-0.001244,20.964340,0.357787,0.933803,-0.408497,0.010761,9.831048,0.170743,0.985316,-0.135228,-0.001842,120.798187,0.858976,-0.512016,-0.291901,-0.014404
1750.000000,1750.000000,0.358398,-1.008789,0.107422,1750.000000,-19.216537,55.320740,44.395447,1750.000000,16.245377,22.947220,-20.700012,20.558275,9.699697,120.476517,0.379431,-0.001285,-0.000746,-0.919891,-0.000420,-0.000328,0.099163,0.001036,-0.000207,-1.306760,-0.952939,-0.484259,-4.402327,0.134795,-1.269948,2.662388,-1.824136,0.916674,0.382238,0.012087,0.001577,0.680183,0.000114,-0.002076,-0.625497,0.007350,-0.001005,20.558275,0.351160,0.936316,-0.406065,0.002432,9.699697,0.168484,0.985704,-0.131351,0.003877,120.476517,0.861837,-0.507185,-0.321671,-0.029770
1760.000000,1760.000000,0.353516,-0.996582,0.093262,1760.000000,-20.437241,52.513123,45.127869,1760.000000,15.645370,22.934036,-20.697083,20.150288,9.582142,120.105324,0.377101,-0.002330,-0.001045,-0.920768,-0.000878,-0.000458,0.099902,0.000739,-0.000297,-3.107862,-1.801102,-0.848163,-5.897074,-1.494748,-1.629542,1.275200,-1.387187,0.436949,0.395923,0.013685,0.001598,0.678639,-0.001544,-0.001658,-0.618623,0.006873,-0.000477,20.150288,0.344484,0.938792,-0.407988,-0.001923,9.582142,0.166461,0.986048,-0.117555,0.013797,120.105324,0.865105,-0.501591,-0.371193,-0.049522
1770.000000,1770.000000,0.333984,-0.991699,0.070801,1770.000000,-21.413803,48.057556,44.822693,1770.000000,15.795364,23.084045,-21.147079,19.749348,9.476562,119.669281,0.373798,-0.003303,-0.000974,-0.922103,-0.001335,-0.000457,0.100004,0.000101,-0.000638,-4.510552,-1.402690,0.398412,-8.818784,-2.921710,-1.426962,-0.991369,-2.266569,-0.879381,0.409326,0.013403,-0.000282,0.676176,-0.002462,-0.000918,-0.612566,0.006057,-0.000816,19.749348,0.337906,0.941180,-0.400940,0.007048,9.476562,0.164644,0.986353,-0.105580,0.011974,119.669281,0.868897,-0.494993,-0.436043,-0.064850
1780.000000,1780.000000,0.336426,-0.976074,0.051758,1780.000000,-22.939682,43.113708,45.127869,1780.000000,15.795364,23.684036,-20.997070,19.348330,9.389425,119.167038,0.369719,-0.004079,-0.000775,-0.923847,-0.001743,-0.000408,0.099069,-0.000935,-0.001037,-6.302381,-1.791828,-0.389138,-11.925816,-3.107032,-0.185322,-2.477650,-1.486282,0.780287,0.421134,0.011808,-0.001595,0.673428,-0.002749,-0.000287,-0.607570,0.004996,-0.001061,19.348330,0.331310,0.943522,-0.401018,-0.000078,9.389425,0.163144,0.986602,-0.087136,0.018444,119.167038,0.873203,-0.487357,-0.502243,-0.066200
1790.000000,1790.000000,0.343750,-0.963867,0.026367,1790.000000,-24.709702,36.460876,45.066833,1790.000000,16.695374,23.684036,-20.997070,18.950331,9.324453,118.585808,0.365284,-0.004435,-0.000357,-0.925853,-0.002006,-0.000262,0.096771,-0.002298,-0.001362,-8.151576,-1.849195,-0.057367,-16.358326,-4.432510,-1.325479,-4.178496,-1.700846,-0.214565,0.431234,0.010101,-0.001707,0.670923,-0.002505,0.000244,-0.603241,0.004330,-0.000666,18.950331,0.324748,0.945800,-0.397999,0.003019,9.324453,0.162025,0.986787,-0.064972,0.022164,118.585808,0.878102,-0.478474,-0.581230,-0.078987
1800.000000,1800.000000,0.325195,-0.955566,0.015137,1800.000000,-24.892807,28.343201,44.395447,1800.000000,17.295364,22.784042,-19.497070,18.561216,9.267530,117.913696,0.360844,-0.004440,-0.000005,-0.927984,-0.002131,-0.000126,0.092939,-0.003832,-0.001535,-8.294789,-0.143213,1.705982,-21.753340,-5.395014,-0.962503,-6.302767,-2.124271,-0.423425,0.440817,0.009582,-0.000518,0.668664,-0.002259,0.000246,-0.598807,0.004434,0.000105,18.561216,0.318318,0.947984,-0.389114,0.008884,9.267530,0.161045,0.986947,-0.056923,0.008049,117.913696,0.883654,-0.468141,-0.672112,-0.090881
1810.000000,1810.000000,0.319336,-0.996582,0.004395,1810.000000,-24.709702,21.202087,43.601990,1810.000000,17.295364,21.434036,-19.197083,18.181807,9.216723,117.160583,0.356270,-0.004573,-0.000133,-0.930266,-0.002282,-0.000151,0.087618,-0.005321,-0.001489,-8.044187,0.250603,0.393816,-25.673321,-3.919981,1.475033,-8.339373,-2.036605,0.087666,0.451273,0.010457,0.000875,0.666124,-0.002541,-0.000282,-0.593828,0.004979,0.000544,18.181807,0.312033,0.950071,-0.379410,0.009705,9.216723,0.160169,0.987090,-0.050807,0.006116,117.160583,0.889731,-0.456486,-0.753113,-0.081001
1820.000000,1820.000000,0.317871,-1.011719,-0.005371,1820.000000,-23.672104,12.596130,43.174744,1820.000000,18.345367,21.434036,-19.197083,17.807810,9.165166,116.311165,0.351298,-0.004972,-0.000398,-0.932757,-0.002491,-0.000209,0.080957,-0.006660,-0.001339,-6.967135,1.077052,0.826449,-30.564180,-4.890860,-0.970879,-9.821009,-1.481636,0.554969,0.463166,0.011893,0.001436,0.662585,-0.003538,-0.000998,-0.588607,0.005221,0.000243,17.807810,0.305825,0.952088,-0.373997,0.005413,9.165166,0.159281,0.987233,-0.051558,-0.000751,116.311165,0.896400,-0.443246,-0.849419,-0.096306
1830.000000,1830.000000,0.315430,-1.029785,-0.040039,1830.000000,-23.183823,6.370544,42.930603,1830.000000,18.045364,21.734039,-19.197083,17.436777,9.119880,115.388771,0.345883,-0.005415,-0.000443,-0.935437,-0.002680,-0.000190,0.072950,-0.008007,-0.001346,-6.480776,0.486359,-0.590693,-32.646778,-2.082598,2.808262,-10.964410,-1.143401,0.338235,0.476113,0.012947,0.001054,0.658003,-0.004582,-0.001044,-0.583394,0.005213,-0.000009,17.436777,0.299653,0.954048,-0.371033,0.002964,9.119880,0.158501,0.987359,-0.045286,0.006271,115.388771,0.903419,-0.428758,-0.922394,-0.072975
1840.000000,1840.000000,0.335937,-1.036621,-0.036621,1840.000000,-24.587631,2.281189,43.113708,1840.000000,18.045364,20.984039,-20.997070,17.064219,9.100900,114.416512,0.340257,-0.005626,-0.000211,-0.938180,-0.002743,-0.000063,0.063581,-0.009369,-0.001362,-7.821146,-1.340370,-1.826729,-32.385544,0.261234,2.343832,-11.560483,-0.596073,0.547328,0.488657,0.012545,-0.000402,0.652504,-0.005499,-0.000916,-0.579182,0.004212,-0.001001,17.064219,0.293443,0.955976,-0.372559,-0.001526,9.100900,0.158174,0.987411,-0.018980,0.026306,114.416512,0.910565,-0.413367,-0.972260,-0.049866
1850.000000,1850.000000,0.342773,-1.053222,-0.042969,1850.000000,-25.136948,-0.400543,44.334412,1850.000000,17.445374,20.984039,-20.997070,16.680283,9.100481,113.412971,0.334833,-0.005425,0.000201,-0.940774,-0.002594,0.000149,0.053209,-0.010372,-0.001004,-8.200640,-0.379493,0.960877,-30.677689,1.707855,1.446621,-11.069684,0.490799,1.086872,0.499161,0.010503,-0.002041,0.645801,-0.006703,-0.001205,-0.577737,0.001446,-0.002766,16.680283,0.287031,0.957921,-0.383936,-0.011377,9.100481,0.158166,0.987412,-0.000419,0.018561,113.412971,0.917665,-0.397356,-1.003540,-0.031281
1860.000000,1860.000000,0.348633,-1.031250,-0.036133,1860.000000,-26.296616,-1.804352,45.005798,1860.000000,17.295364,20.834045,-19.497070,16.291302,9.124688,112.396393,0.329956,-0.004877,0.000548,-0.943044,-0.002270,0.000324,0.042403,-0.010806,-0.000434,-9.100706,-0.900066,-0.520573,-27.776730,2.900959,1.193104,-11.104231,-0.034547,-0.525346,0.507021,0.007861,-0.002642,0.638738,-0.007064,-0.000360,-0.578743,-0.001007,-0.002452,16.291302,0.280521,0.959848,-0.388981,-0.005045,9.124688,0.158584,0.987346,0.024207,0.024626,112.396393,0.924570,-0.381012,-1.016579,-0.013039
1870.000000,1870.000000,0.357910,-1.052246,-0.045410,1870.000000,-27.395248,-2.292633,44.822693,1870.000000,17.295364,21.734039,-19.197083,15.906754,9.172327,111.380295,0.325851,-0.004105,0.000772,-0.944892,-0.001848,0.000421,0.031626,-0.010776,0.000030,-9.831472,-0.730766,0.169300,-24.141720,3.635010,0.734051,-11.911238,-0.807007,-0.772460,0.512617,0.005596,-0.002265,0.633096,-0.005642,0.001422,-0.580012,-0.001269,-0.000262,15.906754,0.274073,0.961709,-0.384548,0.004433,9.172327,0.159404,0.987213,0.047639,0.023432,111.380295,0.931181,-0.364557,-1.016098,0.000481
1880.000000,1880.000000,0.361816,-1.044922,-0.029297,1880.000000,-27.395248,-0.217438,43.052673,1880.000000,18.345367,21.734039,-19.197083,15.543222,9.231602,110.392540,0.322622,-0.003229,0.000876,-0.946289,-0.001397,0.000452,0.021270,-0.010357,0.000420,-9.412066,0.419406,1.150172,-18.272470,5.869249,2.234240,-14.122572,-2.211334,-1.404327,0.516765,0.004147,-0.001448,0.629691,-0.003404,0.002238,-0.580037,-0.000025,0.001243,15.543222,0.267965,0.963429,-0.363531,0.021017,9.231602,0.160426,0.987048,0.059275,0.011636,110.392540,0.937327,-0.348450,-0.987755,0.028343
1890.000000,1890.000000,0.338867,-1.052246,-0.042969,1890.000000,-28.799057,2.830505,42.442322,1890.000000,18.195374,22.184036,-18.897079,15.189821,9.315108,109.443031,0.320094,-0.002529,0.000700,-0.947314,-0.001025,0.000372,0.011650,-0.009620,0.000737,-10.335557,-0.923491,-1.342896,-11.902728,6.369742,0.500493,-14.983251,-0.860679,1.350656,0.520340,0.003576,-0.000572,0.628254,-0.001437,0.001967,-0.578397,0.001640,0.001666,15.189821,0.262018,0.965063,-0.353401,0.010130,9.315108,0.161864,0.986813,0.083507,0.024232,109.443031,0.942973,-0.332869,-0.949509,0.038246
1900.000000,1900.000000,0.312988,-1.047363,-0.032227,1900.000000,-29.897690,5.638123,41.343689,1900.000000,19.545364,22.334045,-19.797073,14.851370,9.418289,108.528709,0.317728,-0.002365,0.000163,-0.948177,-0.000863,0.000162,0.002908,-0.008742,0.000878,-10.849559,-0.514002,0.409489,-6.259471,5.643257,-0.726486,-16.181194,-1.197944,-0.337265,0.523897,0.003556,-0.000020,0.628110,-0.000144,0.001293,-0.575335,0.003062,0.001421,14.851370,0.256312,0.966594,-0.338451,0.014950,9.418289,0.163641,0.986520,0.103181,0.019674,108.528709,0.948165,-0.317780,-0.914322,0.035187
1910.000000,1910.000000,0.293457,-1.047851,-0.038574,1910.000000,-30.813217,7.041931,39.878845,1910.000000,19.545364,21.584045,-19.797073,14.530693,9.537779,107.634537,0.314952,-0.002776,-0.000411,-0.949095,-0.000918,-0.000054,-0.004875,-0.007783,0.000959,-11.103712,-0.254153,0.259849,-2.415179,3.844293,-1.798964,-17.566437,-1.385242,-0.187299,0.527950,0.004053,0.000497,0.627987,-0.000122,0.000022,-0.571752,0.003583,0.000521,14.530693,0.250899,0.968013,-0.320677,0.017775,9.537779,0.165698,0.986177,0.119490,0.016309,107.634537,0.953008,-0.302944,-0.894173,0.020149
1920.000000,1920.000000,0.262207,-1.037597,-0.035156,1920.000000,-31.301498,8.079529,38.352966,1920.000000,20.145370,21.584045,-19.797073,14.227066,9.667861,106.755524,0.311357,-0.003595,-0.000819,-0.950221,-0.001126,-0.000209,-0.011679,-0.006803,0.000980,-10.885618,0.218094,0.472247,0.761087,3.176265,-0.668028,-18.825903,-1.259466,0.125776,0.532883,0.004934,0.000880,0.626833,-0.001154,-0.001031,-0.568432,0.003321,-0.000262,14.227066,0.245765,0.969329,-0.303627,0.017050,9.667861,0.167936,0.985798,0.130082,0.010592,106.755524,0.957544,-0.288289,-0.879013,0.015160
1930.000000,1930.000000,0.258301,-1.028808,-0.041504,1930.000000,-30.996323,7.347107,37.315369,1930.000000,19.545364,20.684036,-18.897079,13.934161,9.799435,105.873009,0.306750,-0.004607,-0.001012,-0.951628,-0.001406,-0.000280,-0.017580,-0.005901,0.000902,-9.885958,0.999660,0.781567,1.971316,1.210229,-1.966036,-19.440083,-0.614180,0.645287,0.538671,0.005788,0.000854,0.624597,-0.002237,-0.001083,-0.565431,0.003001,-0.000319,13.934161,0.240807,0.970573,-0.292905,0.010722,9.799435,0.170200,0.985410,0.131574,0.001492,105.873009,0.961870,-0.273506,-0.882515,-0.003502
1940.000000,1940.000000,0.251953,-1.021484,-0.040527,1940.000000,-30.874252,6.980896,36.643982,1940.000000,19.545364,21.584045,-18.747070,13.647154,9.933281,104.990326,0.301283,-0.005467,-0.000860,-0.953265,-0.001637,-0.000231,-0.022688,-0.005108,0.000793,-9.109084,0.776874,-0.222787,3.421494,1.450178,0.239949,-19.578287,-0.138205,0.475975,0.544786,0.006115,0.000327,0.622039,-0.002558,-0.000321,-0.562383,0.003047,0.000046,13.647154,0.235942,0.971767,-0.287007,0.005898,9.933281,0.172501,0.985009,0.133846,0.002273,104.990326,0.965970,-0.258656,-0.882683,-0.000168
1950.000000,1950.000000,0.228516,-1.017578,-0.035645,1950.000000,-30.141830,6.126404,36.521912,1950.000000,20.145370,21.584045,-18.747070,13.359703,10.062447,104.103043,0.295106,-0.006177,-0.000710,-0.955082,-0.001817,-0.000180,-0.027046,-0.004359,0.000749,-7.780015,1.329069,0.552196,4.268381,0.846887,-0.603291,-19.105312,0.472975,0.611179,0.550649,0.005863,-0.000252,0.620031,-0.002008,0.000549,-0.558880,0.003503,0.000456,13.359703,0.231064,0.972939,-0.287451,-0.000443,10.062447,0.174721,0.984618,0.129166,-0.004681,104.103043,0.969859,-0.243667,-0.887283,-0.004601
1960.000000,1960.000000,0.215332,-1.027832,-0.025879,1960.000000,-28.310776,4.661560,36.827087,1960.000000,20.445374,21.434036,-17.547073,13.066684,10.175225,103.204788,0.288129,-0.006977,-0.000800,-0.957104,-0.002022,-0.000205,-0.030565,-0.003519,0.000840,-5.483660,2.296355,0.967286,4.443305,0.174924,-0.671963,-18.191681,0.913631,0.440657,0.556573,0.005923,0.000060,0.618762,-0.001269,0.000740,-0.554401,0.004480,0.000977,13.066684,0.226085,0.974108,-0.293019,-0.005569,10.175225,0.176659,0.984272,0.112779,-0.016387,103.204788,0.973560,-0.228432,-0.898254,-0.010971
1970.000000,1970.000000,0.213379,-1.033691,-0.021484,1970.000000,-24.343491,1.426697,36.155701,1970.000000,20.440491,20.234039,-18.147079,12.776821,10.249843,102.277023,0.280342,-0.007787,-0.000809,-0.959328,-0.002225,-0.000202,-0.033128,-0.002564,0.000955,-1.318432,4.165227,1.868872,2.893466,-1.549839,-1.724763,-18.221109,-0.029428,-0.943060,0.563145,0.006572,0.000648,0.617632,-0.001131,0.000138,-0.548998,0.005402,0.000922,12.776821,0.221154,0.975239,-0.289863,0.003157,10.249843,0.177941,0.984041,0.074617,-0.038161,102.277023,0.977131,-0.212639,-0.927765,-0.029510
1980.000000,1980.000000,0.209473,-1.041504,-0.021973,1980.000000,-20.742416,-0.339508,36.949158,1980.000000,20.740494,20.229156,-18.146591,12.474991,10.289505,101.333557,0.271954,-0.008388,-0.000601,-0.961683,-0.002354,-0.000130,-0.034746,-0.001617,0.000946,2.147336,3.465768,-0.699459,2.869303,-0.024164,1.525675,-16.777998,1.443111,1.472540,0.570348,0.007203,0.000631,0.615619,-0.002012,-0.000882,-0.543798,0.005200,-0.000202,12.474991,0.216013,0.976390,-0.301830,-0.011968,10.289505,0.178622,0.983918,0.039662,-0.034955,101.333557,0.980500,-0.196520,-0.943466,-0.015701
1990.000000,1990.000000,0.174316,-1.060058,-0.018066,1990.000000,-17.385483,-2.475739,36.582947,1990.000000,21.940491,20.529160,-16.946594,12.172101,10.296295,100.369751,0.262968,-0.008986,-0.000598,-0.964150,-0.002468,-0.000113,-0.035524,-0.000779,0.000838,5.076785,2.929449,-0.536319,2.482405,-0.386897,-0.362733,-16.503458,0.274540,-1.168571,0.578374,0.008026,0.000823,0.612593,-0.003026,-0.001014,-0.538715,0.005083,-0.000117,12.172101,0.210849,0.977519,-0.302890,-0.001060,10.296295,0.178739,0.983897,0.006790,-0.032872,100.369751,0.983667,-0.180000,-0.963806,-0.020340
2000.000000,2000.000000,0.165527,-1.073730,0.001953,2000.000000,-13.540268,-3.513336,37.254333,2000.000000,19.990494,21.429153,-18.146591,11.857028,10.278790,99.394951,0.253144,-0.009824,-0.000838,-0.966780,-0.002630,-0.000162,-0.035424,0.000100,0.000879,6.862234,1.785449,-1.144000,3.169913,0.687508,1.074405,-15.197390,1.306068,1.031528,0.587216,0.008843,0.000817,0.609337,-0.003256,-0.000230,-0.532809,0.005905,0.000822,11.857028,0.205470,0.978663,-0.315073,-0.012183,10.278790,0.178438,0.983951,-0.017506,-0.024296,99.394951,0.986587,-0.163239,-0.974800,-0.010994
2010.000000,2010.000000,0.171387,-1.062500,0.023437,2010.000000,-12.380600,-5.100250,39.207458,2010.000000,20.290482,20.079163,-17.396591,11.516645,10.234910,98.404587,0.242620,-0.010524,-0.000700,-0.969520,-0.002740,-0.000110,-0.034166,0.001257,0.001157,8.586711,1.724477,-0.060972,3.261543,0.091630,-0.595878,-12.718904,2.478485,1.172417,0.595426,0.008209,-0.000633,0.606451,-0.002886,0.000371,-0.526959,0.005851,-0.000055,11.516645,0.199653,0.979867,-0.340383,-0.025310,10.234910,0.177684,0.984088,-0.043880,-0.026374,98.404587,0.989261,-0.146162,-0.990364,-0.015564
2020.000000,2020.000000,0.158691,-1.049804,0.025879,2020.000000,-11.587143,-6.626129,39.817810,2020.000000,20.290482,20.079163,-17.696594,11.164332,10.180983,97.403023,0.231831,-0.010788,-0.000264,-0.972243,-0.002723,0.000016,-0.031587,0.002579,0.001322,8.439019,-0.147692,-1.872169,3.391440,0.129897,0.038268,-11.687509,1.031396,-1.447089,0.601706,0.006280,-0.001929,0.604064,-0.002387,0.000499,-0.522548,0.004411,-0.001440,11.164332,0.193624,0.981076,-0.352313,-0.011930,10.180983,0.176758,0.984254,-0.053927,-0.010048,97.403023,0.991664,-0.128848,-1.001564,-0.011200
2030.000000,2030.000000,0.146484,-1.062500,0.031738,2030.000000,-10.305405,-7.541656,40.611267,2030.000000,20.290482,20.079163,-17.696594,10.798473,10.111075,96.400177,0.220967,-0.010864,-0.000076,-0.974884,-0.002641,0.000083,-0.027844,0.003743,0.001164,8.739058,0.300038,0.447730,4.081305,0.689865,0.559968,-10.524494,1.163014,0.131618,0.605977,0.004271,-0.002009,0.602074,-0.001990,0.000396,-0.519903,0.002645,-0.001766,10.798473,0.187355,0.982292,-0.365859,-0.013546,10.111075,0.175557,0.984469,-0.069907,-0.015980,96.400177,0.993768,-0.111472,-1.002846,-0.001282
2040.000000,2040.000000,0.153320,-1.052734,0.023926,2040.000000,-7.741928,-7.785797,40.855408,2040.000000,21.790482,20.529160,-17.696594,10.424822,10.012010,95.404854,0.210160,-0.010808,0.000056,-0.977390,-0.002506,0.000134,-0.023276,0.004568,0.000824,10.206601,1.467544,1.167505,5.339303,1.257998,0.568133,-9.946039,0.578455,-0.584559,0.609039,0.003063,-0.001209,0.600295,-0.001779,0.000211,-0.518379,0.001524,-0.001121,10.424822,0.180945,0.983493,-0.373652,-0.007792,10.012010,0.173855,0.984771,-0.099066,-0.029159,95.404854,0.995554,-0.094193,-0.995323,0.007523
2050.000000,2050.000000,0.137695,-1.069336,0.016602,2050.000000,-4.262924,-8.762360,41.099548,2050.000000,20.140488,19.029160,-15.896591,10.043874,9.874996,94.409523,0.199612,-0.010548,0.000260,-0.979703,-0.002314,0.000193,-0.018341,0.004935,0.000368,12.386540,2.179939,0.712396,5.769571,0.430268,-0.827730,-9.379183,0.566856,-0.011599,0.612043,0.003004,-0.000059,0.598608,-0.001687,0.000092,-0.516789,0.001590,0.000066,10.043874,0.174402,0.984675,-0.380948,-0.007297,9.874996,0.171499,0.985184,-0.137013,-0.037948,94.409523,0.997040,-0.076885,-0.995331,-0.000008
2060.000000,2060.000000,0.141113,-1.094238,0.021484,2060.000000,-2.737045,-8.213043,41.160583,2060.000000,20.140488,17.679153,-18.146591,9.657969,9.719961,93.429115,0.189376,-0.010236,0.000312,-0.981813,-0.002110,0.000204,-0.013403,0.004938,0.000003,12.466079,0.079538,-2.100401,7.601024,1.831453,1.401185,-9.000230,0.378953,-0.187903,0.615208,0.003165,0.000161,0.596265,-0.002343,-0.000656,-0.515739,0.001050,-0.000540,9.657969,0.167766,0.985827,-0.385904,-0.004956,9.719961,0.168833,0.985645,-0.155035,-0.018022,93.429115,0.998210,-0.059814,-0.980408,0.014923
2070.000000,2070.000000,0.124023,-1.094726,0.019043,2070.000000,-1.089096,-8.029938,41.587830,2070.000000,22.240494,17.679153,-18.146591,9.263998,9.546273,92.460388,0.179438,-0.009938,0.000298,-0.983732,-0.001918,0.000192,-0.008618,0.004785,-0.000153,12.608513,0.142434,0.062896,8.897739,1.296715,-0.534738,-8.269191,0.731039,0.352086,0.618809,0.003601,0.000436,0.591452,-0.004813,-0.002469,-0.516971,-0.001232,-0.002282,9.263998,0.160984,0.986957,-0.393971,-0.008067,9.546273,0.165844,0.986152,-0.173688,-0.018653,92.460388,0.999078,-0.042929,-0.968727,0.011681
2080.000000,2080.000000,0.134766,-1.103027,0.022949,2080.000000,1.165390,-7.602692,40.611267,2080.000000,20.740494,18.879166,-17.546585,8.876341,9.348672,91.505615,0.169875,-0.009563,0.000375,-0.985457,-0.001726,0.000193,-0.004080,0.004537,-0.000248,13.271371,0.662858,0.520424,10.284112,1.386373,0.089657,-8.911863,-0.642673,-1.373712,0.623108,0.004299,0.000697,0.584409,-0.007043,-0.002231,-0.519810,-0.002839,-0.001607,8.876341,0.154302,0.988024,-0.387657,0.006314,9.348672,0.162442,0.986718,-0.197601,-0.023913,91.505615,0.999655,-0.026275,-0.954773,0.013954
2090.000000,2090.000000,0.114746,-1.108886,0.026367,2090.000000,1.043320,-7.236481,39.024353,2090.000000,20.740494,19.029160,-17.396591,8.501423,9.151267,90.564949,0.160783,-0.009092,0.000470,-0.986990,-0.001533,0.000193,0.000178,0.004259,-0.000279,11.554441,-1.716929,-2.379787,11.455365,1.171253,-0.215119,-10.050046,-1.138183,-0.495510,0.626864,0.003757,-0.000542,0.577898,-0.006511,0.000532,-0.522566,-0.002756,0.000083,8.501423,0.147834,0.989012,-0.374918,0.012739,9.151267,0.159042,0.987272,-0.197405,0.000196,90.564949,0.999951,-0.009860,-0.940666,0.014107
2100.000000,2100.000000,0.101074,-1.104980,0.018066,2100.000000,1.104355,-8.335114,38.352966,2100.000000,22.090485,19.029160,-17.396591,8.130433,8.952668,89.624557,0.152034,-0.008749,0.000343,-0.988367,-0.001377,0.000156,0.004098,0.003920,-0.000339,10.114979,-1.439463,0.277467,11.082560,-0.372806,-1.544059,-10.177736,-0.127690,1.010492,0.629761,0.002897,-0.000860,0.573059,-0.004838,0.001673,-0.524408,-0.001842,0.000914,8.130433,0.141427,0.989949,-0.370990,0.003928,8.952668,0.155618,0.987817,-0.198599,-0.001194,89.624557,0.999979,0.006553,-0.940392,0.000275
2110.000000,2110.000000,0.113281,-1.083008,0.015625,2110.000000,0.982285,-9.738922,37.498474,2110.000000,22.240494,18.279160,-18.446594,7.765485,8.755285,88.680855,0.143614,-0.008419,0.000330,-0.989605,-0.001238,0.000139,0.007516,0.003419,-0.000501,8.584536,-1.530443,-0.090981,10.407660,-0.674900,-0.302094,-10.431259,-0.253523,-0.125833,0.632858,0.003097,0.000200,0.568681,-0.004378,0.000460,-0.525445,-0.001037,0.000804,7.765485,0.135119,0.990829,-0.364948,0.006042,8.755285,0.152215,0.988347,-0.197383,0.001216,88.680855,0.999735,0.023021,-0.943703,-0.003311
