icmT,accT,accX,accY,accZ,gyrT,gyrX,gyrY,gyrZ,magT,magX,magY,magZ,roll,pitch,yaw,accX_,accX_1,accX_2,accY_,accY_1,accY_2,accZ_,accZ_1,accZ_2,gyrX_,gyrX_1,gyrX_2,gyrY_,gyrY_1,gyrY_2,gyrZ_,gyrZ_1,gyrZ_2,magX_,magX_1,magX_2,magY_,magY_1,magY_2,magZ_,magZ_1,magZ_2,roll_,roll_s,roll_c,roll_1,roll_2,pitch_,pitch_s,pitch_c,pitch_1,pitch_2,yaw_,yaw_s,yaw_c,yaw_1,yaw_2
0.000000,0.000000,0.215820,-1.015625,0.011230,0.000000,0.909805,-0.186920,-0.045776,0.000000,58.349960,15.599960,-116.700012,0.000000,0.000000,0.000000,0.000000,0.000000,0.000000,0.000000,0.000000,0.000000,0.000000,0.000000,0.000000,0.000000,0.000000,0.000000,0.000000,0.000000,0.000000,0.000000,0.000000,0.000000,0.000000,0.000000,0.000000,0.000000,0.000000,0.000000,0.000000,0.000000,0.000000,0.000000,0.000000,0.000000,0.000000,0.000000,0.000000,0.000000,0.000000,0.000000,0.000000,0.000000,0.000000,0.000000,0.000000,0.000000
10.000000,10.000000,0.214844,-1.013183,0.012207,10.000000,1.337051,-0.858307,0.255585,10.000000,58.799957,15.599960,-116.700012,0.000000,0.000000,0.000000,0.000000,0.000000,0.000000,0.000000,0.000000,0.000000,0.000000,0.000000,0.000000,0.000000,0.000000,0.000000,0.000000,0.000000,0.000000,0.000000,0.000000,0.000000,0.000000,0.000000,0.000000,0.000000,0.000000,0.000000,0.000000,0.000000,0.000000,0.000000,0.000000,0.000000,0.000000,0.000000,0.000000,0.000000,0.000000,0.000000,0.000000,0.000000,0.000000,0.000000,0.000000,0.000000
20.000000,20.000000,0.210937,-1.019043,0.014648,20.000000,0.848770,-0.064850,0.621796,20.000000,56.099960,15.149963,-114.900009,3.593906,-3.608318,1.278863,0.000000,0.000000,0.000000,0.000000,0.000000,0.000000,0.000000,0.000000,0.000000,0.811885,0.811885,0.811885,-0.062032,-0.062032,-0.062032,0.594774,0.594774,0.594774,0.435699,0.435699,0.435699,0.117662,0.117662,0.117662,-0.892369,-0.892369,-0.892369,3.593906,0.062684,0.998033,3.593906,3.593906,-3.608318,-0.062935,0.998018,-3.608318,-3.608318,1.278863,0.022319,0.999751,1.278863,1.278863
30.000000,30.000000,0.205078,-1.010742,0.039062,30.000000,0.726700,-0.308990,0.499725,30.000000,56.099960,14.999954,-117.900009,7.117131,-7.143273,2.539968,0.000000,0.000000,0.000000,0.000000,0.000000,0.000000,0.000000,0.000000,0.000000,0.623022,-0.188863,-1.000749,-0.290054,-0.228022,-0.165991,0.425191,-0.169583,-0.764358,0.433734,-0.001965,-0.437665,0.116877,-0.000785,-0.118447,-0.893429,-0.001060,0.891309,7.117131,0.123898,0.992295,3.523225,-0.070682,-7.143273,-0.124351,0.992238,-3.534955,0.073363,2.539968,0.044316,0.999018,1.261104,-0.017759
40.000000,40.000000,0.213379,-1.028808,0.015625,40.000000,0.848770,0.236511,0.438690,40.000000,56.699966,14.999954,-117.900009,10.570489,-10.608726,3.798226,0.000000,0.000000,0.000000,0.000000,0.000000,0.000000,0.000000,0.000000,0.000000,0.681393,0.058371,0.247235,0.257734,0.547788,0.775810,0.326803,-0.098388,0.071195,0.432171,-0.001563,0.000402,0.116088,-0.000789,-0.000004,-0.894289,-0.000860,0.000200,10.570489,0.183445,0.983030,3.453358,-0.069866,-10.608726,-0.184101,0.982907,-3.465453,0.069502,3.798226,0.066243,0.997804,1.258258,-0.002846
50.000000,50.000000,0.213379,-1.027832,0.029297,50.000000,1.092911,0.114441,0.682831,50.000000,56.549957,15.449966,-116.250000,10.584918,-10.433868,5.053284,0.201479,0.201479,0.201479,-0.979229,-0.979229,-0.979229,0.022741,0.022741,0.022741,0.848993,0.167599,0.109228,0.119411,-0.138323,-0.686111,0.527458,0.200656,0.299044,0.431544,-0.000626,0.000937,0.115739,-0.000349,0.000440,-0.894636,-0.000348,0.000512,10.584918,0.183693,0.982984,0.014429,-3.438929,-10.433868,-0.181101,0.983465,0.174857,3.640310,5.053284,0.088082,0.996113,1.255058,-0.003200
60.000000,60.000000,0.218262,-1.041015,0.021484,60.000000,0.665665,-0.186920,1.293182,60.000000,55.649963,16.649963,-118.200012,10.593432,-10.258617,6.280715,0.201782,0.000303,-0.201177,-0.979161,0.000068,0.979297,0.022992,0.000251,-0.022489,0.356923,-0.492069,-0.659669,-0.179101,-0.298512,-0.160190,1.059357,0.531899,0.331243,0.431193,-0.000351,0.000275,0.116247,0.000509,0.000857,-0.894740,-0.000103,0.000244,10.593432,0.183839,0.982956,0.008514,-0.005915,-10.258617,-0.178092,0.984014,0.175251,0.000394,6.280715,0.109400,0.993998,1.227430,-0.027628
70.000000,70.000000,0.222656,-1.031738,0.027344,70.000000,1.337051,0.785828,0.865936,70.000000,55.649963,16.499954,-117.300003,10.606595,-10.093626,7.494199,0.202321,0.000539,0.000237,-0.979046,0.000115,0.000046,0.023139,0.000147,-0.000104,0.956233,0.599309,1.091379,0.767184,0.946285,1.244798,0.549522,-0.509836,-1.041734,0.430417,-0.000776,-0.000425,0.117486,0.001238,0.000730,-0.894951,-0.000212,-0.000109,10.606595,0.184064,0.982914,0.013163,0.004648,-10.093626,-0.175257,0.984523,0.164991,-0.010260,7.494199,0.130426,0.991458,1.213484,-0.013946
80.000000,80.000000,0.212891,-1.027344,0.025879,80.000000,1.214981,0.053406,0.377655,80.000000,57.299957,16.499954,-117.300003,10.625027,-9.930910,8.677235,0.202958,0.000637,0.000098,-0.978911,0.000135,0.000021,0.023283,0.000144,-0.000003,0.741997,-0.214236,-0.813545,-0.000955,-0.768139,-1.714425,0.022575,-0.526947,-0.017111,0.429728,-0.000690,0.000086,0.118943,0.001457,0.000219,-0.895090,-0.000139,0.000073,10.625027,0.184381,0.982855,0.018432,0.005269,-9.930910,-0.172461,0.985016,0.162716,-0.002275,8.677235,0.150868,0.988554,1.183036,-0.030448
90.000000,90.000000,0.229004,-1.027344,0.014160,90.000000,1.764297,-0.370026,0.926971,90.000000,57.299957,14.849960,-117.450012,10.638496,-9.776836,9.832500,0.203633,0.000675,0.000038,-0.978770,0.000140,0.000005,0.023284,0.000001,-0.000143,1.185383,0.443386,0.657622,-0.408218,-0.407263,0.360877,0.532853,0.510278,1.037225,0.429711,-0.000017,0.000673,0.119980,0.001037,-0.000420,-0.894960,0.000130,0.000270,10.638496,0.184612,0.982812,0.013470,-0.004962,-9.776836,-0.169811,0.985477,0.154074,-0.008642,9.832500,0.170768,0.985311,1.155265,-0.027771
100.000000,100.000000,0.219238,-1.015625,0.033203,100.000000,2.985001,-0.003815,0.560760,100.000000,57.299957,14.849960,-115.950012,10.656266,-9.637656,10.967432,0.204471,0.000838,0.000163,-0.978599,0.000172,0.000031,0.023151,-0.000133,-0.000134,2.228802,1.043419,0.600033,-0.023983,0.384234,0.791497,0.121991,-0.410863,-0.921141,0.430326,0.000615,0.000632,0.120197,0.000217,-0.000820,-0.894635,0.000325,0.000194,10.656266,0.184917,0.982754,0.017770,0.004300,-9.637656,-0.167417,0.985886,0.139180,-0.014894,10.967432,0.190251,0.981735,1.134933,-0.020332
110.000000,110.000000,0.209961,-1.021484,0.037109,110.000000,1.642227,-1.041412,1.598358,110.000000,57.449966,14.849960,-115.950012,10.664405,-9.488297,12.067937,0.205233,0.000761,-0.000077,-0.978435,0.000163,-0.000008,0.023315,0.000165,0.000298,0.723006,-1.505795,-2.549214,-1.015131,-0.991148,-1.375382,1.088404,0.966413,1.377276,0.431411,0.001085,0.000471,0.119782,-0.000414,-0.000631,-0.894168,0.000467,0.000143,10.664405,0.185056,0.982728,0.008139,-0.009631,-9.488297,-0.164846,0.986319,0.149359,0.010179,12.067937,0.209071,0.977900,1.100505,-0.034428
120.000000,120.000000,0.217773,-1.022949,0.008789,120.000000,1.337051,-0.675201,0.988007,120.000000,56.699966,15.749954,-116.850006,10.678918,-9.339288,13.148296,0.205706,0.000473,-0.000288,-0.978329,0.000107,-0.000057,0.023613,0.000298,0.000133,0.335015,-0.387991,1.117804,-0.575368,0.439763,1.430911,0.392201,-0.696203,-1.662616,0.432643,0.001232,0.000147,0.119209,-0.000573,-0.000159,-0.893649,0.000519,0.000051,10.678918,0.185305,0.982681,0.014513,0.006374,-9.339288,-0.162280,0.986745,0.149010,-0.000349,13.148296,0.227472,0.973785,1.080359,-0.020145
130.000000,130.000000,0.206055,-1.019043,0.008301,130.000000,1.764297,-0.614166,0.621796,130.000000,56.699966,15.749954,-116.550003,10.697002,-9.197269,14.206320,0.205939,0.000233,-0.000240,-0.978283,0.000045,-0.000061,0.023462,-0.000151,-0.000449,0.679339,0.344324,0.732316,-0.462735,0.112633,-0.327130,-0.012759,-0.404960,0.291243,0.433610,0.000967,-0.000265,0.118836,-0.000373,0.000200,-0.893230,0.000419,-0.000100,10.697002,0.185615,0.982623,0.018085,0.003572,-9.197269,-0.159834,0.987144,0.142018,-0.006991,14.206320,0.245414,0.969418,1.058023,-0.022336
140.000000,140.000000,0.210449,-1.026855,0.014648,140.000000,0.909805,-0.858307,0.621796,140.000000,56.399963,15.749954,-116.550003,10.714702,-9.048991,15.239968,0.205922,-0.000017,-0.000251,-0.978302,-0.000018,-0.000064,0.022843,-0.000620,-0.000468,-0.234217,-0.913557,-1.257881,-0.649844,-0.187109,-0.299742,-0.032942,-0.020184,0.384776,0.434206,0.000596,-0.000372,0.118741,-0.000095,0.000278,-0.892953,0.000277,-0.000142,10.714702,0.185919,0.982565,0.017699,-0.000385,-9.048991,-0.157279,0.987554,0.148278,0.006260,15.239968,0.262862,0.964833,1.033648,-0.024375
150.000000,150.000000,0.210937,-1.019531,0.011230,150.000000,-0.429153,-0.614166,1.171112,150.000000,56.699966,16.199966,-115.050003,10.726423,-8.889600,16.254755,0.205721,-0.000201,-0.000184,-0.978363,-0.000061,-0.000043,0.022026,-0.000817,-0.000197,-1.532627,-1.298410,-0.384854,-0.351526,0.298318,0.485426,0.474160,0.507102,0.527285,0.434597,0.000391,-0.000205,0.118920,0.000179,0.000273,-0.892739,0.000214,-0.000063,10.726423,0.186120,0.982527,0.011722,-0.005978,-8.889600,-0.154531,0.987988,0.159391,0.011113,16.254755,0.279909,0.960027,1.014787,-0.018862
160.000000,160.000000,0.223633,-1.019531,0.014160,160.000000,0.177383,-0.614166,0.988007,160.000000,56.699966,14.999954,-116.550003,10.739510,-8.738287,17.248728,0.205558,-0.000163,0.000039,-0.978417,-0.000054,0.000007,0.021127,-0.000898,-0.000082,-0.853899,0.678728,1.977138,-0.310776,0.040751,-0.257567,0.235761,-0.238399,-0.745501,0.434956,0.000359,-0.000032,0.119237,0.000317,0.000138,-0.892522,0.000217,0.000003,10.739510,0.186344,0.982485,0.013086,0.001365,-8.738287,-0.151921,0.988393,0.151313,-0.008079,17.248728,0.296520,0.955027,0.993973,-0.020814
170.000000,170.000000,0.225586,-1.028808,0.015137,170.000000,0.482559,-0.858307,1.476288,170.000000,56.999954,14.999954,-116.550003,10.747632,-8.591936,18.219925,0.205633,0.000075,0.000237,-0.978420,-0.000003,0.000050,0.020227,-0.000901,-0.000002,-0.517918,0.335982,-0.342746,-0.505846,-0.195071,-0.235822,0.658951,0.423190,0.661589,0.435270,0.000314,-0.000045,0.119307,0.000071,-0.000246,-0.892360,0.000163,-0.000054,10.747632,0.186483,0.982458,0.008122,-0.004964,-8.591936,-0.149396,0.988777,0.146351,-0.004962,18.219925,0.312665,0.949863,0.971197,-0.022776
180.000000,180.000000,0.235840,-1.026367,0.029785,180.000000,1.214981,-0.858307,0.865936,180.000000,56.999954,15.149963,-116.400009,10.761971,-8.447659,19.171274,0.205975,0.000343,0.000268,-0.978363,0.000057,0.000061,0.019496,-0.000731,0.000170,-0.500460,0.017458,-0.318523,-0.448889,0.056958,0.252028,-0.007220,-0.666171,-1.089361,0.435535,0.000265,-0.000049,0.119034,-0.000274,-0.000344,-0.892267,0.000093,-0.000070,10.761971,0.186729,0.982411,0.014338,0.006216,-8.447659,-0.146906,0.989150,0.144278,-0.002073,19.171274,0.328393,0.944541,0.951349,-0.019848
190.000000,190.000000,0.230469,-1.026855,0.026367,190.000000,0.665665,-1.285553,0.011444,190.000000,56.699966,16.349960,-118.200012,10.785067,-8.307606,20.099241,0.206548,0.000573,0.000231,-0.978250,0.000113,0.000056,0.019105,-0.000390,0.000340,-0.307446,0.193013,0.175555,-0.803757,-0.354868,-0.411826,-0.850254,-0.843034,-0.176863,0.435650,0.000114,-0.000151,0.118753,-0.000280,-0.000007,-0.892248,0.000019,-0.000074,10.785067,0.187125,0.982336,0.023096,0.008758,-8.307606,-0.144488,0.989507,0.140053,-0.004225,20.099241,0.343647,0.939099,0.927967,-0.023382
200.000000,200.000000,0.202637,-1.020019,0.020996,200.000000,1.703262,-1.285553,0.133514,200.000000,58.049957,15.749954,-116.850006,10.807204,-8.180389,21.008707,0.207146,0.000598,0.000024,-0.978126,0.000124,0.000011,0.018989,-0.000116,0.000274,0.687676,0.995123,0.802110,-0.716737,0.087021,0.441889,-0.684272,0.165981,1.009015,0.435610,-0.000039,-0.000154,0.118740,-0.000013,0.000267,-0.892269,-0.000021,-0.000040,10.807204,0.187505,0.982264,0.022138,-0.000958,-8.180389,-0.142290,0.989825,0.127216,-0.012836,21.008707,0.358510,0.933526,0.909466,-0.018501
210.000000,210.000000,0.204590,-1.018554,0.019531,210.000000,0.848770,-1.041412,-0.167847,210.000000,56.549957,16.649963,-117.450012,10.832170,-8.047318,21.902433,0.207418,0.000272,-0.000326,-0.978069,0.000057,-0.000067,0.018966,-0.000023,0.000093,-0.214274,-0.901951,-1.897074,-0.400876,0.315861,0.228841,-0.934848,-0.250576,-0.416557,0.435595,-0.000016,0.000024,0.119034,0.000294,0.000307,-0.892238,0.000031,0.000052,10.832170,0.187933,0.982182,0.024966,0.002829,-8.047318,-0.139991,0.990153,0.133072,0.005856,21.902433,0.373027,0.927820,0.893726,-0.015739
220.000000,220.000000,0.210937,-1.017578,0.011719,220.000000,1.337051,-1.346588,0.072479,220.000000,56.549957,15.149963,-116.700012,10.854186,-7.921611,22.775524,0.207336,-0.000082,-0.000353,-0.978087,-0.000019,-0.000076,0.018897,-0.000069,-0.000045,0.245693,0.459967,1.361918,-0.635800,-0.234925,-0.550786,-0.642439,0.292409,0.542985,0.435448,-0.000147,-0.000131,0.119487,0.000453,0.000159,-0.892249,-0.000011,-0.000042,10.854186,0.188310,0.982110,0.022016,-0.002951,-7.921611,-0.137818,0.990458,0.125706,-0.007366,22.775524,0.387122,0.922029,0.873091,-0.020636
230.000000,230.000000,0.203125,-1.012207,0.009766,230.000000,1.581192,-1.163483,0.621796,230.000000,56.699966,15.149963,-116.700012,10.870045,-7.800533,23.633356,0.207053,-0.000283,-0.000202,-0.978152,-0.000065,-0.000046,0.018661,-0.000237,-0.000168,0.432092,0.186400,-0.273568,-0.381286,0.254514,0.489439,-0.076902,0.565537,0.273129,0.435131,-0.000317,-0.000170,0.119717,0.000230,-0.000223,-0.892372,-0.000124,-0.000113,10.870045,0.188582,0.982057,0.015859,-0.006157,-7.800533,-0.135725,0.990747,0.121078,-0.004628,23.633356,0.400882,0.916130,0.857832,-0.015259
240.000000,240.000000,0.210937,-1.019531,0.007324,240.000000,1.337051,-1.346588,1.415253,240.000000,57.449966,15.749954,-117.600006,10.877303,-7.678946,24.472507,0.206622,-0.000431,-0.000148,-0.978252,-0.000100,-0.000035,0.018203,-0.000458,-0.000221,0.133949,-0.298144,-0.484543,-0.497267,-0.115981,-0.370496,0.674373,0.751275,0.185737,0.434858,-0.000273,0.000043,0.119638,-0.000079,-0.000309,-0.892516,-0.000144,-0.000020,10.877303,0.188706,0.982034,0.007258,-0.008600,-7.678946,-0.133622,0.991032,0.121588,0.000510,24.472507,0.414257,0.910160,0.839151,-0.018681
250.000000,250.000000,0.209473,-1.014160,0.024414,250.000000,1.703262,-2.079010,2.025604,250.000000,57.449966,14.699966,-116.550003,10.877852,-7.562742,25.287640,0.206126,-0.000495,-0.000064,-0.978366,-0.000114,-0.000015,0.017661,-0.000542,-0.000084,0.444476,0.310527,0.608671,-1.126953,-0.629686,-0.513705,1.184074,0.509702,-0.241573,0.434794,-0.000064,0.000209,0.119363,-0.000275,-0.000196,-0.892585,-0.000068,0.000075,10.877852,0.188716,0.982032,0.000549,-0.006709,-7.562742,-0.131612,0.991301,0.116204,-0.005384,25.287640,0.427163,0.904175,0.815132,-0.024019
260.000000,260.000000,0.219727,-1.018066,0.019531,260.000000,1.092911,-1.346588,1.537323,260.000000,55.799957,14.699966,-116.550003,10.882673,-7.442412,26.093433,0.205698,-0.000428,0.000067,-0.978463,-0.000097,0.000017,0.017262,-0.000399,0.000143,-0.207203,-0.651679,-0.962206,-0.297656,0.829297,1.458983,0.595075,-0.589000,-1.098701,0.434841,0.000047,0.000111,0.118783,-0.000579,-0.000304,-0.892639,-0.000054,0.000014,10.882673,0.188798,0.982016,0.004821,0.004272,-7.442412,-0.129530,0.991576,0.120330,0.004126,26.093433,0.439836,0.898078,0.805794,-0.009338
270.000000,270.000000,0.217285,-1.015625,0.011230,270.000000,1.153946,-1.468658,1.476288,270.000000,56.699966,16.649963,-117.750000,10.887701,-7.324751,26.882030,0.205448,-0.000251,0.000178,-0.978521,-0.000058,0.000040,0.016977,-0.000286,0.000113,-0.160481,0.046723,0.698402,-0.355103,-0.057447,-0.886744,0.462585,-0.132490,0.456510,0.434641,-0.000200,-0.000247,0.118207,-0.000576,0.000003,-0.892813,-0.000174,-0.000119,10.887701,0.188885,0.981999,0.005028,0.000207,-7.324751,-0.127493,0.991839,0.117661,-0.002669,26.882030,0.452155,0.891939,0.788597,-0.017197
280.000000,280.000000,0.211426,-1.023926,0.011719,280.000000,1.276016,-1.407623,1.232147,280.000000,56.699966,16.499954,-117.300003,10.894879,-7.210238,27.655985,0.205328,-0.000120,0.000131,-0.978552,-0.000031,0.000027,0.016634,-0.000343,-0.000057,-0.058741,0.101739,0.055017,-0.231175,0.123928,0.181375,0.164464,-0.298121,-0.165631,0.434171,-0.000470,-0.000270,0.118215,0.000007,0.000584,-0.893040,-0.000228,-0.000054,10.894879,0.189008,0.981976,0.007178,0.002151,-7.210238,-0.125510,0.992092,0.114513,-0.003148,27.655985,0.464162,0.885750,0.773954,-0.014643
290.000000,290.000000,0.225586,-1.009765,0.025391,290.000000,1.276016,-1.163483,1.293182,290.000000,54.899963,16.499954,-117.300003,10.901296,-7.097627,28.417797,0.205312,-0.000016,0.000104,-0.978561,-0.000009,0.000022,0.016303,-0.000331,0.000012,-0.082196,-0.023454,-0.125194,0.058237,0.289413,0.165485,0.182983,0.018519,0.316640,0.433423,-0.000748,-0.000278,0.118848,0.000634,0.000626,-0.893319,-0.000279,-0.000052,10.901296,0.189118,0.981954,0.006416,-0.000762,-7.097627,-0.123560,0.992337,0.112611,-0.001903,28.417797,0.475897,0.879501,0.761812,-0.012142
300.000000,300.000000,0.218262,-1.010742,0.009766,300.000000,1.276016,-1.651764,1.537323,300.000000,57.299957,15.449966,-116.850006,10.905423,-6.987009,29.160803,0.205511,0.000199,0.000214,-0.978523,0.000038,0.000047,0.016081,-0.000222,0.000109,-0.103345,-0.021150,0.002305,-0.377770,-0.436008,-0.725420,0.374384,0.191401,0.172882,0.432470,-0.000953,-0.000205,0.119675,0.000827,0.000193,-0.893671,-0.000352,-0.000072,10.905423,0.189188,0.981941,0.004128,-0.002289,-6.987009,-0.121644,0.992574,0.110618,-0.001993,29.160803,0.487262,0.873256,0.743006,-0.018806
310.000000,310.000000,0.215332,-1.012207,0.019531,310.000000,1.092911,-0.858307,1.720428,310.000000,57.299957,16.349960,-117.450012,10.908084,-6.876592,29.897457,0.205862,0.000351,0.000152,-0.978452,0.000071,0.000033,0.015894,-0.000187,0.000035,-0.297454,-0.194109,-0.172960,0.450759,0.828529,1.264537,0.489714,0.115330,-0.076071,0.431863,-0.000607,0.000347,0.120358,0.000683,-0.000143,-0.893873,-0.000202,0.000150,10.908084,0.189234,0.981932,0.002661,-0.001467,-6.876592,-0.119731,0.992806,0.110417,-0.000200,29.897457,0.498449,0.866919,0.736654,-0.006351
320.000000,320.000000,0.206543,-1.014648,0.008301,320.000000,0.848770,-0.858307,2.208710,320.000000,57.149963,16.349960,-117.450012,10.906252,-6.765748,30.619413,0.206157,0.000295,-0.000056,-0.978393,0.000059,-0.000012,0.015686,-0.000208,-0.000021,-0.532318,-0.234864,-0.040755,0.448163,-0.002595,-0.831124,0.885301,0.395587,0.280257,0.431758,-0.000105,0.000502,0.120977,0.000619,-0.000064,-0.893840,0.000033,0.000234,10.906252,0.189203,0.981938,-0.001832,-0.004493,-6.765748,-0.117810,0.993036,0.110844,0.000426,30.619413,0.509333,0.860569,0.721956,-0.014698
330.000000,330.000000,0.194824,-1.025390,0.021484,330.000000,1.092911,-1.041412,3.307343,330.000000,56.549957,16.499954,-117.600006,10.893678,-6.659261,31.324900,0.206148,-0.000009,-0.000305,-0.978399,-0.000005,-0.000064,0.015470,-0.000216,-0.000008,-0.278140,0.254179,0.489043,0.268947,-0.179216,-0.176621,1.827737,0.942435,0.546848,0.431818,0.000060,0.000165,0.121658,0.000681,0.000062,-0.893718,0.000122,0.000089,10.893678,0.188987,0.981980,-0.012574,-0.010742,-6.659261,-0.115965,0.993253,0.106487,-0.004357,31.324900,0.519890,0.854233,0.705486,-0.016470
340.000000,340.000000,0.209961,-1.008789,0.024414,340.000000,1.398087,-0.858307,3.673553,340.000000,56.549957,14.399963,-117.000000,10.877323,-6.557797,32.017845,0.205770,-0.000378,-0.000369,-0.978479,-0.000081,-0.000075,0.015388,-0.000082,0.000134,0.013862,0.292001,0.037822,0.454249,0.185302,0.364518,1.982542,0.154806,-0.787630,0.431843,0.000025,-0.000035,0.122067,0.000410,-0.000271,-0.893650,0.000068,-0.000054,10.877323,0.188707,0.982033,-0.016355,-0.003780,-6.557797,-0.114205,0.993457,0.101464,-0.005023,32.017845,0.530183,0.847883,0.692945,-0.012541
350.000000,350.000000,0.210449,-1.026855,0.039551,350.000000,0.543594,-0.675201,3.368378,350.000000,56.699966,14.399963,-117.000000,10.863689,-6.450312,32.698425,0.205259,-0.000511,-0.000133,-0.978582,-0.000103,-0.000022,0.015666,0.000278,0.000360,-0.828289,-0.842151,-1.134152,0.622079,0.167830,-0.017472,1.474484,-0.508059,-0.662864,0.431882,0.000039,0.000014,0.121681,-0.000387,-0.000796,-0.893684,-0.000034,-0.000102,10.863689,0.188473,0.982078,-0.013634,0.002721,-6.450312,-0.112342,0.993670,0.107485,0.006021,32.698425,0.540217,0.841526,0.680580,-0.012365
360.000000,360.000000,0.216309,-1.033691,0.024902,360.000000,0.848770,-1.224518,4.100800,360.000000,57.899963,16.199966,-116.550003,10.842589,-6.348764,33.359287,0.204778,-0.000481,0.000030,-0.978672,-0.000090,0.000013,0.016349,0.000682,0.000405,-0.486435,0.341855,1.184006,0.072695,-0.549383,-0.717213,1.996558,0.522074,1.030133,0.432178,0.000296,0.000257,0.120775,-0.000906,-0.000519,-0.893664,0.000020,0.000054,10.842589,0.188111,0.982148,-0.021100,-0.007466,-6.348764,-0.110580,0.993867,0.101548,-0.005938,33.359287,0.549887,0.835239,0.660862,-0.019718
370.000000,370.000000,0.226074,-1.023926,0.041504,370.000000,0.543594,-0.858307,3.124237,370.000000,57.299957,16.199966,-118.350006,10.831113,-6.247413,34.009476,0.204459,-0.000319,0.000162,-0.978722,-0.000050,0.000040,0.017337,0.000988,0.000306,-0.755635,-0.269201,-0.611055,0.445490,0.372794,0.922178,0.831981,-1.164577,-1.686651,0.432775,0.000597,0.000301,0.120121,-0.000654,0.000252,-0.893463,0.000201,0.000181,10.831113,0.187915,0.982185,-0.011477,0.009624,-6.247413,-0.108822,0.994061,0.101352,-0.000196,34.009476,0.559330,0.828945,0.650188,-0.010674
380.000000,380.000000,0.208496,-1.024902,0.039062,380.000000,1.214981,-1.346588,3.002167,380.000000,57.299957,15.149963,-118.200012,10.820938,-6.156206,34.640926,0.204348,-0.000111,0.000208,-0.978721,0.000001,0.000051,0.018651,0.001314,0.000326,-0.064968,0.690668,0.959868,-0.032455,-0.477944,-0.850739,0.580636,-0.251345,0.913232,0.433334,0.000559,-0.000039,0.119746,-0.000375,0.000279,-0.893243,0.000220,0.000019,10.820938,0.187740,0.982219,-0.010175,0.001302,-6.156206,-0.107239,0.994233,0.091207,-0.010145,34.640926,0.568432,0.822731,0.631451,-0.018738
390.000000,390.000000,0.212891,-1.024414,0.032715,390.000000,1.947403,-1.651764,3.002167,390.000000,55.799957,15.149963,-118.200012,10.810874,-6.075832,35.256340,0.204263,-0.000085,0.000025,-0.978707,0.000013,0.000012,0.020216,0.001565,0.000251,0.625605,0.690572,-0.000095,-0.294491,-0.262037,0.215908,0.465233,-0.115403,0.135942,0.433489,0.000155,-0.000403,0.119255,-0.000490,-0.000115,-0.893233,0.000010,-0.000211,10.810874,0.187568,0.982252,-0.010064,0.000111,-6.075832,-0.105845,0.994383,0.080373,-0.010834,35.256340,0.577236,0.816578,0.615414,-0.016037
400.000000,400.000000,0.216309,-1.034179,0.031250,400.000000,1.520157,-2.201080,2.819061,400.000000,56.699966,15.899963,-117.000000,10.802678,-5.994731,35.854244,0.204147,-0.000116,-0.000031,-0.978697,0.000010,-0.000004,0.021798,0.001582,0.000017,0.145825,-0.479780,-1.170352,-0.766667,-0.472175,-0.210139,0.182736,-0.282497,-0.167094,0.433196,-0.000293,-0.000449,0.118724,-0.000531,-0.000041,-0.893446,-0.000213,-0.000223,10.802678,0.187427,0.982278,-0.008196,0.001868,-5.994731,-0.104437,0.994532,0.081101,0.000728,35.854244,0.585725,0.810510,0.597904,-0.017509
410.000000,410.000000,0.189941,-1.020996,0.038086,410.000000,1.764297,-2.750397,2.330780,410.000000,56.699966,14.999954,-116.850006,10.799143,-5.919430,36.435146,0.203893,-0.000253,-0.000137,-0.978715,-0.000018,-0.000028,0.023324,0.001526,-0.000056,0.348498,0.202673,0.682452,-1.195799,-0.429132,0.043043,-0.368347,-0.551083,-0.268585,0.432822,-0.000374,-0.000081,0.118339,-0.000385,0.000146,-0.893678,-0.000232,-0.000019,10.799143,0.187367,0.982290,-0.003535,0.004661,-5.919430,-0.103130,0.994668,0.075301,-0.005800,36.435146,0.593913,0.804530,0.580902,-0.017002
420.000000,420.000000,0.204590,-1.034179,0.032715,420.000000,1.825333,-2.811432,2.208710,420.000000,58.199966,14.999954,-116.850006,10.796186,-5.847972,37.003681,0.203299,-0.000595,-0.000342,-0.978802,-0.000087,-0.000069,0.024812,0.001488,-0.000039,0.357473,0.008975,-0.193697,-1.116864,0.078935,0.508067,-0.520886,-0.152539,0.398544,0.432820,-0.000001,0.000373,0.117925,-0.000414,-0.000029,-0.893734,-0.000055,0.000177,10.796186,0.187316,0.982300,-0.002956,0.000579,-5.847972,-0.101889,0.994796,0.071458,-0.003843,37.003681,0.601866,0.798597,0.568535,-0.012367
430.000000,430.000000,0.201172,-1.037597,0.037109,430.000000,1.825333,-3.238678,2.330780,430.000000,55.799957,16.949966,-118.650009,10.791087,-5.779590,37.556240,0.202432,-0.000866,-0.000271,-0.978945,-0.000143,-0.000056,0.026223,0.001412,-0.000076,0.305952,-0.051521,-0.060497,-1.390716,-0.273852,-0.352787,-0.424955,0.095930,0.248469,0.433027,0.000207,0.000208,0.117652,-0.000273,0.000142,-0.893670,0.000064,0.000120,10.791087,0.187229,0.982316,-0.005099,-0.002143,-5.779590,-0.100702,0.994917,0.068382,-0.003076,37.556240,0.609540,0.792755,0.552559,-0.015976
440.000000,440.000000,0.208008,-1.020508,0.037109,440.000000,1.642227,-3.604889,2.819061,440.000000,55.799957,15.599960,-118.800003,10.780206,-5.712334,38.094460,0.201486,-0.000946,-0.000079,-0.979104,-0.000158,-0.000016,0.027556,0.001332,-0.000079,0.082507,-0.223445,-0.171924,-1.577646,-0.186930,0.086922,0.014721,0.439676,0.343746,0.432699,-0.000328,-0.000534,0.117841,0.000190,0.000462,-0.893804,-0.000134,-0.000198,10.780206,0.187042,0.982352,-0.010881,-0.005782,-5.712334,-0.099534,0.995034,0.067256,-0.001126,38.094460,0.616960,0.786995,0.538219,-0.014339
450.000000,450.000000,0.197754,-1.027832,0.009766,450.000000,2.557755,-5.313873,2.635956,450.000000,57.149963,15.599960,-118.800003,10.770243,-5.656632,38.606239,0.200546,-0.000941,0.000005,-0.979266,-0.000163,-0.000004,0.028618,0.001062,-0.000270,0.928638,0.846131,1.069576,-3.027142,-1.449496,-1.262566,-0.225252,-0.239973,-0.679649,0.431807,-0.000892,-0.000564,0.118173,0.000332,0.000142,-0.894191,-0.000388,-0.000254,10.770243,0.186871,0.982384,-0.009963,0.000918,-5.656632,-0.098567,0.995130,0.055702,-0.011554,38.606239,0.623965,0.781453,0.511780,-0.026440
460.000000,460.000000,0.209961,-1.033691,0.034180,460.000000,3.107071,-5.374908,2.574921,460.000000,57.599960,15.449966,-116.850006,10.760002,-5.608118,39.107964,0.199624,-0.000922,0.000019,-0.979437,-0.000171,-0.000008,0.029213,0.000595,-0.000467,1.349022,0.420384,-0.425747,-2.765622,0.261520,1.711016,-0.327205,-0.101953,0.138020,0.431134,-0.000673,0.000219,0.118348,0.000175,-0.000157,-0.894493,-0.000301,0.000086,10.760002,0.186696,0.982418,-0.010241,-0.000278,-5.608118,-0.097724,0.995214,0.048514,-0.007187,39.107964,0.630784,0.775959,0.501724,-0.010056
470.000000,470.000000,0.211914,-1.031250,0.017090,470.000000,3.534317,-5.741119,1.781464,470.000000,57.599960,14.849960,-118.800003,10.756824,-5.565045,39.596088,0.198837,-0.000787,0.000135,-0.979590,-0.000153,0.000018,0.029461,0.000248,-0.000348,1.611799,0.262778,-0.157606,-2.807801,-0.042179,-0.303699,-1.119846,-0.792641,-0.690688,0.431057,-0.000077,0.000596,0.118287,-0.000061,-0.000236,-0.894538,-0.000045,0.000256,10.756824,0.186641,0.982428,-0.003178,0.007063,-5.565045,-0.096976,0.995287,0.043073,-0.005442,39.596088,0.637371,0.770557,0.488125,-0.013599
480.000000,480.000000,0.200684,-1.031738,0.029785,480.000000,4.327774,-6.473541,1.903534,480.000000,58.049957,14.849960,-118.800003,10.751938,-5.525815,40.066978,0.198345,-0.000492,0.000295,-0.979690,-0.000100,0.000053,0.029456,-0.000005,-0.000253,1.729379,0.117579,-0.145199,-3.186081,-0.378279,-0.336100,-0.965120,0.154726,0.947367,0.431189,0.000132,0.000209,0.117851,-0.000436,-0.000375,-0.894532,0.000006,0.000051,10.751938,0.186557,0.982444,-0.004887,-0.001709,-5.525815,-0.096294,0.995353,0.039230,-0.003842,40.066978,0.643683,0.765293,0.470890,-0.017235
490.000000,490.000000,0.209961,-1.039551,0.021973,490.000000,5.731583,-6.717682,1.659393,490.000000,58.049957,13.649963,-117.000000,10.749297,-5.505680,40.525688,0.198137,-0.000208,0.000284,-0.979737,-0.000048,0.000052,0.029259,-0.000197,-0.000191,3.348378,1.618999,1.501420,-3.053096,0.132985,0.511264,-1.170200,-0.205079,-0.359805,0.431375,0.000186,0.000054,0.116941,-0.000909,-0.000473,-0.894562,-0.000030,-0.000036,10.749297,0.186512,0.982453,-0.002641,0.002246,-5.505680,-0.095944,0.995387,0.020135,-0.019095,40.525688,0.649789,0.760115,0.458710,-0.012180
500.000000,500.000000,0.206543,-1.036621,0.018066,500.000000,5.487442,-6.290436,2.391815,500.000000,56.549957,13.649963,-117.000000,10.739403,-5.483098,40.978550,0.198030,-0.000108,0.000100,-0.979771,-0.000033,0.000014,0.028869,-0.000390,-0.000193,2.773673,-0.574704,-2.193704,-2.277670,0.775426,0.642441,-0.419296,0.750903,0.955983,0.431865,0.000490,0.000304,0.115495,-0.001446,-0.000536,-0.894513,0.000049,0.000078,10.739403,0.186342,0.982485,-0.009894,-0.007254,-5.483098,-0.095552,0.995424,0.022582,0.002447,40.978550,0.655776,0.754955,0.452862,-0.005848
510.000000,510.000000,0.209961,-1.029297,0.012207,510.000000,5.670547,-7.083893,1.049042,510.000000,56.399963,16.349960,-118.200012,10.742732,-5.461963,41.413826,0.197919,-0.000110,-0.000002,-0.979813,-0.000042,-0.000009,0.028186,-0.000683,-0.000293,2.646031,-0.127642,0.447062,-2.727223,-0.449553,-1.224979,-1.715667,-1.296371,-2.047275,0.432330,0.000465,-0.000025,0.114067,-0.001428,0.000018,-0.894472,0.000041,-0.000007,10.742732,0.186399,0.982474,0.003329,0.013224,-5.461963,-0.095185,0.995460,0.021135,-0.001446,41.413826,0.661493,0.749951,0.435276,-0.017586
520.000000,520.000000,0.216309,-1.027344,0.010742,520.000000,7.623672,-5.985260,1.110077,520.000000,57.899963,14.999954,-119.400009,10.745379,-5.459210,41.850933,0.197910,-0.000010,0.000100,-0.979843,-0.000031,0.000012,0.027177,-0.001009,-0.000326,4.212343,1.566312,1.693954,-1.318382,1.408841,1.858394,-1.552529,0.163139,1.459509,0.432463,0.000133,-0.000332,0.113318,-0.000749,0.000680,-0.894503,-0.000031,-0.000072,10.745379,0.186445,0.982465,0.002647,-0.000682,-5.459210,-0.095137,0.995464,0.002753,-0.018383,41.850933,0.667195,0.744883,0.437107,0.001831
530.000000,530.000000,0.216797,-1.027832,0.028320,530.000000,7.806778,-5.374908,0.499725,530.000000,57.899963,15.749954,-117.600006,10.754183,-5.456951,42.285110,0.198110,0.000201,0.000211,-0.979834,0.000009,0.000040,0.026016,-0.001160,-0.000151,3.936462,-0.275880,-1.842192,-0.491406,0.826975,-0.581866,-2.039605,-0.487076,-0.650214,0.432613,0.000150,0.000017,0.113130,-0.000188,0.000561,-0.894454,0.000049,0.000080,10.754183,0.186596,0.982437,0.008803,0.006156,-5.456951,-0.095098,0.995468,0.002259,-0.000494,42.285110,0.672820,0.739806,0.434177,-0.002930
540.000000,540.000000,0.224609,-1.031250,0.031250,540.000000,8.600235,-5.191803,0.682831,540.000000,56.099960,15.749954,-117.600006,10.761546,-5.461384,42.712135,0.198569,0.000459,0.000258,-0.979767,0.000068,0.000059,0.025048,-0.000968,0.000192,4.252991,0.316529,0.592409,-0.141566,0.349840,-0.477135,-1.718584,0.321020,0.808096,0.432866,0.000252,0.000102,0.113379,0.000248,0.000436,-0.894300,0.000154,0.000105,10.761546,0.186722,0.982413,0.007363,-0.001440,-5.461384,-0.095175,0.995461,-0.004433,-0.006691,42.712135,0.678315,0.734771,0.427025,-0.007153
550.000000,550.000000,0.205078,-1.010254,0.017090,550.000000,8.905411,-4.642487,0.560760,550.000000,56.399963,15.449966,-118.350006,10.770700,-5.467880,43.136185,0.199206,0.000637,0.000178,-0.979656,0.000111,0.000043,0.024328,-0.000720,0.000249,4.059474,-0.193517,-0.510046,0.529361,0.670927,0.321087,-1.710278,0.008306,-0.312714,0.432814,-0.000052,-0.000304,0.113995,0.000616,0.000368,-0.894247,0.000053,-0.000100,10.770700,0.186879,0.982383,0.009153,0.001790,-5.467880,-0.095288,0.995450,-0.006496,-0.002064,43.136185,0.683735,0.729731,0.424049,-0.002975
560.000000,560.000000,0.214844,-1.018554,0.026367,560.000000,8.539200,-4.337311,0.011444,560.000000,56.399963,16.499954,-117.600006,10.785804,-5.469935,43.555481,0.199851,0.000645,0.000008,-0.979540,0.000116,0.000005,0.023707,-0.000621,0.000099,3.224861,-0.834613,-0.641097,0.907711,0.378350,-0.292576,-2.104895,-0.394617,-0.402923,0.432374,-0.000439,-0.000387,0.114864,0.000868,0.000252,-0.894348,-0.000101,-0.000154,10.785804,0.187138,0.982334,0.015104,0.005951,-5.469935,-0.095323,0.995446,-0.002055,0.004441,43.555481,0.689057,0.724707,0.419296,-0.004753
570.000000,570.000000,0.210449,-1.016113,0.042480,570.000000,9.149551,-3.787994,0.743866,570.000000,57.299957,16.499954,-117.600006,10.794138,-5.477499,43.972565,0.200459,0.000609,-0.000036,-0.979424,0.000116,-0.000001,0.023335,-0.000373,0.000248,3.383148,0.158287,0.992900,1.483994,0.576283,0.197932,-1.231967,0.872927,1.267544,0.431900,-0.000474,-0.000035,0.116097,0.001233,0.000365,-0.894418,-0.000070,0.000032,10.794138,0.187281,0.982306,0.008334,-0.006770,-5.477499,-0.095455,0.995434,-0.007563,-0.005508,43.972565,0.694314,0.719672,0.417084,-0.002213
580.000000,580.000000,0.216797,-1.006347,0.031738,580.000000,11.774063,-3.177643,1.598358,580.000000,57.449966,14.849960,-117.000000,10.794662,-5.510703,44.387630,0.201083,0.000624,0.000015,-0.979295,0.000129,0.000014,0.023393,0.000059,0.000432,5.441824,2.058676,1.900389,2.064053,0.580060,0.003777,-0.311839,0.920128,0.047201,0.431767,-0.000134,0.000341,0.117382,0.001285,0.000052,-0.894315,0.000103,0.000173,10.794662,0.187290,0.982305,0.000524,-0.007811,-5.510703,-0.096032,0.995378,-0.033205,-0.025641,44.387630,0.699509,0.714624,0.415066,-0.002018
590.000000,590.000000,0.215820,-1.030761,0.040527,590.000000,16.473770,-2.201080,2.758026,590.000000,57.449966,14.999954,-117.600006,10.784591,-5.589788,44.803684,0.201748,0.000665,0.000041,-0.979148,0.000147,0.000018,0.023807,0.000413,0.000354,9.289913,3.848089,1.789413,2.937291,0.873238,0.293178,0.823148,1.134987,0.214859,0.432071,0.000304,0.000438,0.118125,0.000743,-0.000542,-0.894070,0.000245,0.000141,10.784591,0.187117,0.982338,-0.010071,-0.010594,-5.589788,-0.097406,0.995245,-0.079085,-0.045880,44.803684,0.704680,0.709525,0.416054,0.000988
600.000000,600.000000,0.219727,-1.036133,0.037598,600.000000,20.074844,-0.736237,3.734589,600.000000,56.249954,14.999954,-117.600006,10.765939,-5.703397,45.225304,0.202418,0.000670,0.000005,-0.978993,0.000155,0.000009,0.024500,0.000693,0.000280,11.724828,2.434915,-1.413175,4.192245,1.254954,0.381716,1.683375,0.860227,-0.274760,0.432477,0.000406,0.000102,0.118256,0.000131,-0.000612,-0.893856,0.000214,-0.000031,10.765939,0.186797,0.982398,-0.018652,-0.008581,-5.703397,-0.099379,0.995050,-0.113609,-0.034524,45.225304,0.709882,0.704321,0.421619,0.005566
610.000000,610.000000,0.223633,-1.040527,0.051758,610.000000,25.690079,2.128601,4.894257,610.000000,56.249954,14.399963,-117.450012,10.737084,-5.870946,45.666447,0.203087,0.000670,-0.000000,-0.978828,0.000164,0.000009,0.025506,0.001006,0.000313,15.835042,4.110214,1.675300,6.663811,2.471566,1.216612,2.639250,0.955874,0.095647,0.432596,0.000119,-0.000287,0.117928,-0.000329,-0.000460,-0.893842,0.000014,-0.000200,10.737084,0.186303,0.982492,-0.028854,-0.010202,-5.870946,-0.102288,0.994755,-0.167549,-0.053939,45.666447,0.715284,0.698834,0.441143,0.019524
620.000000,620.000000,0.230469,-1.041015,0.040039,620.000000,29.352188,5.607605,5.870819,620.000000,56.249954,14.399963,-118.500000,10.700132,-6.072573,46.133194,0.203845,0.000758,0.000088,-0.978636,0.000193,0.000028,0.026819,0.001312,0.000306,17.667704,1.832662,-2.277553,9.487530,2.823719,0.352153,3.328730,0.689481,-0.266394,0.432336,-0.000259,-0.000378,0.117147,-0.000781,-0.000453,-0.894071,-0.000228,-0.000242,10.700132,0.185669,0.982612,-0.036952,-0.008098,-6.072573,-0.105788,0.994389,-0.201627,-0.034079,46.133194,0.720953,0.692984,0.466747,0.025604
630.000000,630.000000,0.229492,-1.020019,0.041504,630.000000,29.535294,9.208679,4.528046,630.000000,57.299957,14.399963,-118.500000,10.678192,-6.273664,46.626549,0.204788,0.000943,0.000185,-0.978398,0.000238,0.000045,0.028266,0.001448,0.000135,15.949964,-1.717740,-3.550402,12.152078,2.664548,-0.159171,1.728464,-1.600266,-2.289746,0.431874,-0.000462,-0.000203,0.116008,-0.001139,-0.000358,-0.894442,-0.000372,-0.000144,10.678192,0.185293,0.982683,-0.021940,0.015012,-6.273664,-0.109277,0.994011,-0.201091,0.000536,46.626549,0.726893,0.686751,0.493355,0.026608
640.000000,640.000000,0.224121,-1.054687,0.040039,640.000000,28.253555,11.711121,2.452850,640.000000,56.699966,14.099960,-118.200012,10.678280,-6.459855,47.135227,0.205849,0.001061,0.000118,-0.978133,0.000265,0.000027,0.029696,0.001430,-0.000018,12.916816,-3.033148,-1.315408,13.493266,1.341188,-1.323359,-0.442865,-2.171329,-0.571063,0.431463,-0.000411,0.000051,0.114663,-0.001345,-0.000206,-0.894814,-0.000372,0.000000,10.678280,0.185294,0.982683,0.000088,0.022028,-6.459855,-0.112507,0.993651,-0.186191,0.014901,47.135227,0.732961,0.680270,0.508678,0.015324
650.000000,650.000000,0.217285,-1.025390,0.033203,650.000000,27.032852,12.565613,0.560760,650.000000,56.699966,14.699966,-117.600006,10.698039,-6.631896,47.642712,0.206805,0.000956,-0.000104,-0.977891,0.000242,-0.000023,0.031001,0.001305,-0.000125,10.151133,-2.765683,0.267465,13.093098,-0.400168,-1.741357,-2.252756,-1.809892,0.361437,0.431170,-0.000293,0.000118,0.113315,-0.001348,-0.000003,-0.895127,-0.000313,0.000059,10.698039,0.185633,0.982619,0.019759,0.019671,-6.631896,-0.115490,0.993309,-0.172040,0.014150,47.642712,0.738958,0.673752,0.507484,-0.001194
660.000000,660.000000,0.199219,-1.034179,0.032715,660.000000,30.450821,12.870789,0.804901,660.000000,58.199966,14.699966,-117.600006,10.715728,-6.835235,48.143311,0.207410,0.000605,-0.000351,-0.977729,0.000162,-0.000080,0.032058,0.001057,-0.000248,12.019330,1.868197,4.633881,12.152033,-0.941065,-0.540896,-1.856854,0.395902,2.205794,0.431169,-0.000001,0.000292,0.112226,-0.001089,0.000259,-0.895265,-0.000138,0.000175,10.715728,0.185936,0.982562,0.017689,-0.002070,-6.835235,-0.119015,0.992893,-0.203340,-0.031299,48.143311,0.744816,0.667270,0.500599,-0.006886
670.000000,670.000000,0.186523,-1.041992,0.036133,670.000000,24.774551,12.992859,1.598358,670.000000,56.699966,13.499954,-118.650009,10.725210,-6.979825,48.634796,0.207339,-0.000071,-0.000676,-0.977717,0.000012,-0.000151,0.032864,0.000806,-0.000251,4.984236,-7.035094,-8.903292,11.069914,-1.082119,-0.141054,-0.962152,0.894702,0.498800,0.431520,0.000351,0.000352,0.111281,-0.000944,0.000145,-0.895213,0.000051,0.000189,10.725210,0.186099,0.982531,0.009482,-0.008206,-6.979825,-0.121520,0.992589,-0.144589,0.058750,48.634796,0.750513,0.660856,0.491486,-0.009113
680.000000,680.000000,0.189941,-1.011719,0.053711,680.000000,24.957657,12.138367,1.659393,680.000000,57.149963,13.499954,-116.850006,10.732900,-7.124211,49.107670,0.206477,-0.000863,-0.000792,-0.977873,-0.000156,-0.000168,0.033634,0.000770,-0.000036,4.133206,-0.851030,6.184064,9.103846,-1.966068,-0.883949,-0.840478,0.121674,-0.773029,0.431937,0.000417,0.000066,0.110148,-0.001134,-0.000189,-0.895152,0.000061,0.000010,10.732900,0.186231,0.982506,0.007689,-0.001793,-7.124211,-0.124021,0.992280,-0.144387,0.000203,49.107670,0.755941,0.654640,0.472874,-0.018612
690.000000,690.000000,0.206055,-1.010742,0.070312,690.000000,23.981094,10.307312,1.720428,690.000000,57.149963,14.249954,-118.350006,10.738334,-7.257465,49.552700,0.205185,-0.001292,-0.000429,-0.978105,-0.000232,-0.000076,0.034774,0.001140,0.000370,2.229643,-1.903563,-1.052533,6.336415,-2.767430,-0.801362,-0.725974,0.114504,-0.007169,0.432354,0.000417,-0.000000,0.108936,-0.001212,-0.000078,-0.895099,0.000053,-0.000008,10.738334,0.186324,0.982488,0.005434,-0.002255,-7.257465,-0.126328,0.991988,-0.133254,0.011133,49.552700,0.761003,0.648748,0.445030,-0.027843
700.000000,700.000000,0.207519,-1.014648,0.077637,700.000000,22.211075,9.452820,1.049042,700.000000,55.649963,14.249954,-118.350006,10.748755,-7.372835,49.980366,0.203906,-0.001279,0.000012,-0.978306,-0.000201,0.000031,0.036600,0.001826,0.000686,-0.279473,-2.509115,-0.605552,4.714464,-1.621952,1.145479,-1.319055,-0.593081,-0.707586,0.432526,0.000171,-0.000246,0.107987,-0.000949,0.000262,-0.895131,-0.000032,-0.000085,10.748755,0.186503,0.982454,0.010422,0.004988,-7.372835,-0.128325,0.991732,-0.115370,0.017884,49.980366,0.765824,0.643050,0.427666,-0.017365
710.000000,710.000000,0.224609,-1.008789,0.106445,710.000000,22.211075,8.232117,0.316620,710.000000,56.999954,13.199966,-119.400009,10.765024,-7.489099,50.388168,0.202926,-0.000980,0.000299,-0.978403,-0.000097,0.000104,0.039341,0.002741,0.000915,-0.881097,-0.601624,1.907492,2.862306,-1.852158,-0.230206,-1.915108,-0.596053,-0.002972,0.432173,-0.000353,-0.000524,0.107211,-0.000776,0.000174,-0.895395,-0.000263,-0.000231,10.765024,0.186782,0.982401,0.016269,0.005847,-7.489099,-0.130338,0.991470,-0.116264,-0.000895,50.388168,0.770382,0.637583,0.407803,-0.019863
720.000000,720.000000,0.215332,-0.986816,0.107422,720.000000,22.394180,9.757996,-1.144409,720.000000,56.999954,13.649963,-117.450012,10.794745,-7.609347,50.803699,0.202433,-0.000494,0.000486,-0.978343,0.000061,0.000158,0.043200,0.003859,0.001118,-1.253090,-0.371993,0.229630,3.784035,0.921729,2.773886,-3.150190,-1.235082,-0.639029,0.431665,-0.000509,-0.000156,0.106350,-0.000861,-0.000085,-0.895743,-0.000348,-0.000085,10.794745,0.187291,0.982304,0.029721,0.013453,-7.609347,-0.132418,0.991194,-0.120248,-0.003984,50.803699,0.774985,0.631979,0.415531,0.007729
730.000000,730.000000,0.233398,-0.999023,0.105469,730.000000,19.769669,12.138367,-1.693726,730.000000,56.549957,13.649963,-117.450012,10.829384,-7.707128,51.234882,0.202497,0.000065,0.000558,-0.978104,0.000239,0.000178,0.048029,0.004829,0.000970,-4.274327,-3.021237,-2.649244,5.430454,1.646420,0.724691,-3.396264,-0.246074,0.989008,0.431378,-0.000287,0.000221,0.105517,-0.000834,0.000027,-0.895980,-0.000237,0.000111,10.829384,0.187885,0.982191,0.034638,0.004917,-7.707128,-0.134109,0.990966,-0.097780,0.022468,51.234882,0.779719,0.626129,0.431183,0.015652
740.000000,740.000000,0.245605,-0.994140,0.107910,740.000000,17.572403,15.495300,-2.426147,740.000000,58.349960,15.599960,-119.550003,10.871479,-7.787787,51.690697,0.203271,0.000773,0.000709,-0.977662,0.000442,0.000203,0.053455,0.005426,0.000597,-6.613855,-2.339528,0.681709,7.850492,2.420038,0.773618,-3.783730,-0.387466,-0.141392,0.431341,-0.000036,0.000251,0.105121,-0.000396,0.000437,-0.896044,-0.000064,0.000173,10.871479,0.188607,0.982053,0.042095,0.007457,-7.787787,-0.135504,0.990777,-0.080659,0.017121,51.690697,0.784676,0.619906,0.455814,0.024632
750.000000,750.000000,0.261719,-1.008301,0.091309,750.000000,15.558243,17.875671,-3.158569,750.000000,58.349960,12.899963,-119.250000,10.921968,-7.853694,52.160717,0.204961,0.001690,0.000917,-0.976986,0.000676,0.000234,0.059064,0.005609,0.000183,-8.554326,-1.940471,0.399057,9.100979,1.250487,-1.169551,-4.123954,-0.340224,0.047242,0.431622,0.000280,0.000317,0.105140,0.000019,0.000415,-0.895907,0.000137,0.000201,10.921968,0.189472,0.981886,0.050488,0.008393,-7.853694,-0.136644,0.990620,-0.065907,0.014752,52.160717,0.789735,0.613449,0.470020,0.014206
760.000000,760.000000,0.237793,-1.012207,0.079102,760.000000,14.581680,20.011902,-4.867554,760.000000,56.099960,12.899963,-119.250000,10.991150,-7.914901,52.642273,0.207413,0.002452,0.000762,-0.976138,0.000849,0.000173,0.064304,0.005240,-0.000369,-9.304978,-0.750652,1.189819,9.977221,0.876243,-0.374244,-5.353792,-1.229838,-0.889614,0.431961,0.000340,0.000059,0.104886,-0.000254,-0.000273,-0.895773,0.000134,-0.000003,10.991150,0.190657,0.981657,0.069182,0.018694,-7.914901,-0.137702,0.990474,-0.061206,0.004701,52.642273,0.794863,0.606790,0.481556,0.011536
770.000000,770.000000,0.241699,-1.008789,0.046875,770.000000,13.849258,22.270203,-4.501343,770.000000,57.299957,12.449966,-118.350006,11.058646,-7.972728,53.136669,0.210152,0.002739,0.000288,-0.975263,0.000875,0.000026,0.068542,0.004237,-0.001003,-9.723114,-0.418136,0.332517,10.858027,0.880806,0.004563,-4.473819,0.879973,2.109811,0.431996,0.000034,-0.000305,0.104045,-0.000841,-0.000587,-0.895854,-0.000081,-0.000215,11.058646,0.191814,0.981431,0.067496,-0.001686,-7.972728,-0.138702,0.990334,-0.057827,0.003379,53.136669,0.800069,0.599908,0.494396,0.012840
780.000000,780.000000,0.235840,-1.013672,0.041504,780.000000,10.797501,22.880554,-5.416870,780.000000,57.149963,12.599960,-118.500000,11.136992,-8.023674,53.627628,0.212858,0.002705,-0.000034,-0.974481,0.000782,-0.000093,0.071262,0.002720,-0.001517,-10.244105,-0.520991,-0.102856,10.046578,-0.811449,-1.692255,-4.877797,-0.403978,-1.283951,0.431952,-0.000044,-0.000078,0.102806,-0.001239,-0.000398,-0.896018,-0.000164,-0.000083,11.136992,0.193155,0.981168,0.078346,0.010850,-8.023674,-0.139582,0.990210,-0.050946,0.006882,53.627628,0.805180,0.593031,0.490959,-0.003437
790.000000,790.000000,0.238281,-1.011230,0.043457,790.000000,8.050919,24.162292,-7.675171,790.000000,57.449966,11.699966,-118.950012,11.238910,-8.027164,54.121674,0.215396,0.002538,-0.000167,-0.973837,0.000644,-0.000138,0.072423,0.001162,-0.001559,-14.476970,-4.232864,-3.711873,9.908369,-0.138209,0.673240,-6.513417,-1.635620,-1.231641,0.432044,0.000092,0.000135,0.101247,-0.001559,-0.000321,-0.896151,-0.000133,0.000031,11.238910,0.194900,0.980823,0.101917,0.023571,-8.027164,-0.139643,0.990202,-0.003489,0.047456,54.121674,0.810263,0.586066,0.494045,0.003086
800.000000,800.000000,0.271973,-1.022949,0.058594,800.000000,6.647110,25.627136,-9.933472,800.000000,57.449966,11.999954,-116.850006,11.363936,-8.016900,54.620380,0.217958,0.002563,0.000024,-0.973266,0.000572,-0.000072,0.072444,0.000020,-0.001141,-14.967416,-0.490446,3.742418,9.919618,0.011249,0.149458,-7.985356,-1.471939,0.163681,0.432322,0.000278,0.000186,0.099416,-0.001831,-0.000271,-0.896222,-0.000071,0.000062,11.363936,0.197040,0.980395,0.125027,0.023109,-8.016900,-0.139465,0.990227,0.010263,0.013753,54.620380,0.815334,0.578991,0.498707,0.004662
810.000000,810.000000,0.263184,-1.025390,0.040527,810.000000,3.412247,29.045105,-10.116577,810.000000,58.949966,11.999954,-116.850006,11.491675,-7.974291,55.142056,0.220873,0.002914,0.000352,-0.972665,0.000600,0.000028,0.071674,-0.000769,-0.000790,-17.111086,-2.143670,-1.653224,11.760674,1.841057,1.829808,-7.316957,0.668399,2.140338,0.433122,0.000801,0.000523,0.097551,-0.001865,-0.000034,-0.896041,0.000182,0.000252,11.491675,0.199226,0.979954,0.127739,0.002712,-7.974291,-0.138729,0.990330,0.042609,0.032346,55.142056,0.820572,0.571544,0.521675,0.022968
820.000000,820.000000,0.253906,-1.021484,0.022461,820.000000,-1.527786,31.669617,-10.116577,820.000000,57.449966,13.199966,-119.400009,11.620505,-7.882239,55.677856,0.223993,0.003120,0.000206,-0.972072,0.000594,-0.000007,0.070025,-0.001649,-0.000880,-20.638903,-3.527817,-1.384147,12.641780,0.881105,-0.959951,-6.502589,0.814367,0.145968,0.434343,0.001221,0.000421,0.096022,-0.001530,0.000335,-0.895615,0.000426,0.000244,11.620505,0.201428,0.979503,0.128830,0.001091,-7.882239,-0.137137,0.990552,0.092052,0.049443,55.677856,0.825880,0.563845,0.535801,0.014126
830.000000,830.000000,0.254883,-1.029785,0.014160,830.000000,-4.701614,33.317566,-9.750366,830.000000,57.599960,12.449966,-119.700012,11.746643,-7.757758,56.218334,0.226981,0.002988,-0.000132,-0.971572,0.000500,-0.000093,0.067291,-0.002734,-0.001085,-22.099329,-1.460426,2.067390,12.466076,-0.175704,-1.056809,-5.382595,1.119994,0.305627,0.435240,0.000897,-0.000324,0.095017,-0.001005,0.000524,-0.895286,0.000328,-0.000098,11.746643,0.203584,0.979057,0.126138,-0.002692,-7.757758,-0.134985,0.990848,0.124481,0.032429,56.218334,0.831162,0.556030,0.540478,0.004677
840.000000,840.000000,0.254883,-1.018066,0.026855,840.000000,-6.044388,34.355164,-10.055542,840.000000,57.599960,12.899963,-118.500000,11.876414,-7.618365,56.758160,0.229718,0.002737,-0.000251,-0.971173,0.000398,-0.000102,0.063652,-0.003639,-0.000905,-21.600592,0.498737,1.959164,11.674376,-0.791699,-0.615995,-4.979698,0.402897,-0.717097,0.435593,0.000353,-0.000544,0.094435,-0.000582,0.000424,-0.895176,0.000110,-0.000219,11.876414,0.205801,0.978594,0.129771,0.003633,-7.618365,-0.132574,0.991173,0.139393,0.014912,56.758160,0.836364,0.548174,0.539825,-0.000652
850.000000,850.000000,0.258789,-1.028320,0.017578,850.000000,-6.593704,34.843445,-12.130737,850.000000,59.099960,12.899963,-118.500000,12.026804,-7.471519,57.292168,0.232216,0.002498,-0.000240,-0.970843,0.000331,-0.000068,0.059499,-0.004153,-0.000514,-20.303659,1.296932,0.798195,10.380432,-1.293944,-0.502245,-6.285340,-1.305642,-1.708539,0.435894,0.000302,-0.000051,0.094212,-0.000223,0.000358,-0.895053,0.000123,0.000013,12.026804,0.208369,0.978050,0.150390,0.020618,-7.471519,-0.130033,0.991510,0.146845,0.007452,57.292168,0.841437,0.540355,0.534008,-0.005817
860.000000,860.000000,0.258301,-1.031738,0.033203,860.000000,-7.570267,34.721375,-13.778687,860.000000,58.949966,12.599960,-119.550003,12.192939,-7.312948,57.814182,0.234479,0.002263,-0.000235,-0.970555,0.000287,-0.000043,0.055153,-0.004346,-0.000193,-19.448956,0.854704,-0.442228,8.573450,-1.806982,-0.513038,-7.047541,-0.762201,0.543441,0.436497,0.000602,0.000301,0.094242,0.000031,0.000254,-0.894756,0.000297,0.000174,12.192939,0.211204,0.977442,0.166135,0.015745,-7.312948,-0.127289,0.991866,0.158571,0.011726,57.814182,0.846325,0.532667,0.522015,-0.011993
870.000000,870.000000,0.231934,-1.022461,0.037109,870.000000,-10.438919,34.111023,-13.961792,870.000000,58.949966,11.249954,-118.950012,12.359643,-7.124551,58.319290,0.236308,0.001829,-0.000434,-0.970339,0.000216,-0.000071,0.050992,-0.004161,0.000185,-20.403294,-0.954338,-1.809042,6.420647,-2.152803,-0.345821,-6.317119,0.730422,1.492623,0.437313,0.000816,0.000214,0.094114,-0.000129,-0.000159,-0.894371,0.000385,0.000088,12.359643,0.214047,0.976823,0.166704,0.000569,-7.124551,-0.124027,0.992279,0.188397,0.029826,58.319290,0.850988,0.525185,0.505108,-0.016907
880.000000,880.000000,0.208496,-1.018554,0.039062,880.000000,-12.697220,32.707214,-13.656616,880.000000,58.799957,11.249954,-118.950012,12.521070,-6.913452,58.799820,0.237238,0.000930,-0.000899,-0.970299,0.000040,-0.000176,0.047307,-0.003685,0.000476,-20.615564,-0.212271,0.742067,3.667645,-2.753001,-0.600198,-5.157867,1.159252,0.428830,0.438189,0.000877,0.000061,0.093447,-0.000666,-0.000537,-0.894012,0.000359,-0.000026,12.521070,0.216799,0.976216,0.161427,-0.005277,-6.913452,-0.120370,0.992729,0.211099,0.022701,58.799820,0.855363,0.518030,0.480530,-0.024578
890.000000,890.000000,0.219727,-1.018066,0.033691,890.000000,-14.650345,31.242371,-14.450073,890.000000,59.699966,12.599960,-118.500000,12.686779,-6.683681,59.255455,0.237047,-0.000191,-0.001121,-0.970495,-0.000196,-0.000236,0.044130,-0.003177,0.000507,-20.439970,0.175594,0.387865,1.076474,-2.591172,0.161830,-5.128579,0.029288,-1.129964,0.439169,0.000979,0.000103,0.092501,-0.000946,-0.000280,-0.893630,0.000382,0.000023,12.686779,0.219621,0.975585,0.165709,0.004281,-6.683681,-0.116388,0.993204,0.229772,0.018673,59.255455,0.859455,0.511211,0.455635,-0.024895
900.000000,900.000000,0.214844,-1.043457,0.040527,900.000000,-14.467239,30.204773,-15.243530,900.000000,59.699966,13.949966,-118.950012,12.855598,-6.457082,59.690697,0.235931,-0.001117,-0.000926,-0.970887,-0.000391,-0.000195,0.041417,-0.002713,0.000465,-18.158672,2.281298,2.105703,-0.889774,-1.966248,0.624924,-5.082402,0.046177,0.016890,0.440337,0.001168,0.000189,0.092053,-0.000448,0.000499,-0.893101,0.000529,0.000147,12.855598,0.222495,0.974934,0.168819,0.003111,-6.457082,-0.112459,0.993656,0.226598,-0.003173,59.690697,0.863314,0.504668,0.435242,-0.020393
910.000000,910.000000,0.230469,-1.041504,0.035156,910.000000,-13.734818,29.716492,-15.548706,910.000000,58.949966,13.949966,-118.950012,13.021939,-6.239498,60.111458,0.234178,-0.001752,-0.000636,-0.971405,-0.000518,-0.000127,0.039151,-0.002267,0.000446,-15.477277,2.681396,0.400098,-2.160036,-1.270262,0.695986,-4.553883,0.528519,0.482341,0.441499,0.001162,-0.000007,0.092560,0.000506,0.000954,-0.892475,0.000626,0.000097,13.021939,0.225324,0.974284,0.166341,-0.002479,-6.239498,-0.108685,0.994076,0.217584,-0.009014,60.111458,0.866996,0.498314,0.420761,-0.014481
920.000000,920.000000,0.239746,-1.048340,0.053223,920.000000,-14.528275,30.143738,-15.792847,920.000000,59.099960,13.949966,-119.400009,13.184993,-6.016395,60.527489,0.232199,-0.001980,-0.000228,-0.971949,-0.000544,-0.000026,0.037392,-0.001758,0.000509,-14.424950,1.052327,-1.629068,-2.438392,-0.278355,0.991907,-3.994711,0.559172,0.030654,0.442336,0.000837,-0.000324,0.093834,0.001274,0.000768,-0.891927,0.000548,-0.000078,13.184993,0.228096,0.973639,0.163054,-0.003287,-6.016395,-0.104813,0.994492,0.223104,0.005519,60.527489,0.870592,0.492006,0.416031,-0.004730
930.000000,930.000000,0.252930,-1.029785,0.061523,930.000000,-15.321732,31.547546,-17.745972,930.000000,59.099960,12.899963,-119.250000,13.361856,-5.788752,60.949024,0.230451,-0.001747,0.000233,-0.972404,-0.000455,0.000090,0.036369,-0.001024,0.000734,-13.407586,1.017364,-0.034964,-1.749742,0.688650,0.967005,-5.102704,-1.107993,-1.667165,0.442805,0.000469,-0.000368,0.095333,0.001499,0.000225,-0.891536,0.000392,-0.000156,13.361856,0.231100,0.972930,0.176863,0.013809,-5.788752,-0.100861,0.994901,0.227643,0.004539,60.949024,0.874188,0.485588,0.421535,0.005505
940.000000,940.000000,0.257324,-1.030761,0.061523,940.000000,-16.847610,32.218933,-17.501831,940.000000,60.899963,12.899963,-119.250000,13.531391,-5.550497,61.368687,0.229266,-0.001185,0.000562,-0.972690,-0.000286,0.000169,0.036200,-0.000169,0.000855,-13.126653,0.280933,-0.736430,-1.813625,-0.063883,-0.752533,-3.995429,1.107275,2.215267,0.443240,0.000436,-0.000033,0.096528,0.001194,-0.000305,-0.891191,0.000345,-0.000047,13.531391,0.233978,0.972242,0.169536,-0.007327,-5.550497,-0.096723,0.995311,0.238255,0.010612,61.368687,0.877721,0.479172,0.419662,-0.001873
950.000000,950.000000,0.273437,-1.027832,0.068848,950.000000,-19.105911,33.012390,-18.417358,950.000000,60.749954,12.149963,-118.800003,13.706020,-5.295587,61.787052,0.228847,-0.000419,0.000765,-0.972766,-0.000076,0.000210,0.036807,0.000607,0.000776,-13.520597,-0.393944,-0.674877,-1.748458,0.065167,0.129050,-4.076474,-0.081045,-1.188320,0.444083,0.000843,0.000407,0.097148,0.000621,-0.000574,-0.890703,0.000487,0.000142,13.706020,0.236940,0.971524,0.174629,0.005094,-5.295587,-0.092294,0.995732,0.254910,0.016655,61.787052,0.881197,0.472750,0.418365,-0.001297
960.000000,960.000000,0.282715,-1.025390,0.047852,960.000000,-21.303177,33.988953,-19.821167,960.000000,60.749954,11.249954,-119.400009,13.891528,-5.025580,62.205269,0.229359,0.000512,0.000931,-0.972602,0.000164,0.000240,0.037939,0.001132,0.000525,-13.771570,-0.250974,0.142970,-1.507076,0.241382,0.176214,-4.602287,-0.525813,-0.444767,0.445332,0.001249,0.000406,0.096989,-0.000159,-0.000780,-0.890097,0.000606,0.000119,13.891528,0.240085,0.970752,0.185508,0.010879,-5.025580,-0.087600,0.996156,0.270006,0.015096,62.205269,0.884624,0.466305,0.418217,-0.000149
970.000000,970.000000,0.279297,-1.012207,0.046387,970.000000,-23.195267,35.087585,-21.041870,970.000000,60.149963,11.249954,-119.400009,14.087024,-4.743902,62.624317,0.230820,0.001461,0.000949,-0.972208,0.000395,0.000231,0.039173,0.001234,0.000102,-13.657253,0.114317,0.365291,-1.163757,0.343319,0.101937,-4.890853,-0.288566,0.237247,0.446620,0.001289,0.000040,0.095960,-0.001029,-0.000870,-0.889563,0.000534,-0.000072,14.087024,0.243395,0.969927,0.195496,0.009988,-4.743902,-0.082702,0.996574,0.281678,0.011672,62.624317,0.888011,0.459823,0.419048,0.000832
980.000000,980.000000,0.268066,-1.023437,0.032227,980.000000,-24.293900,36.552429,-21.652222,980.000000,59.999954,11.849960,-118.500000,14.287089,-4.458292,63.047935,0.232930,0.002110,0.000649,-0.971664,0.000544,0.000149,0.040171,0.000998,-0.000236,-12.742071,0.915182,0.800865,-0.494935,0.668823,0.325504,-4.552576,0.338277,0.626843,0.447687,0.001067,-0.000222,0.094424,-0.001535,-0.000506,-0.889191,0.000372,-0.000162,14.287089,0.246781,0.969071,0.200066,0.004570,-4.458292,-0.077733,0.996974,0.285611,0.003932,63.047935,0.891386,0.453245,0.423618,0.004570
990.000000,990.000000,0.260254,-0.988769,0.055664,990.000000,-25.941849,38.017273,-21.652222,990.000000,59.099960,14.249954,-118.650009,14.485932,-4.163156,63.476490,0.235278,0.002348,0.000238,-0.971066,0.000597,0.000053,0.040921,0.000750,-0.000248,-12.381998,0.360073,-0.555109,0.118892,0.613827,-0.054996,-3.642029,0.910547,0.572270,0.448387,0.000700,-0.000367,0.093255,-0.001170,0.000366,-0.888962,0.000229,-0.000143,14.485932,0.250142,0.968209,0.198843,-0.001223,-4.163156,-0.072597,0.997361,0.295135,0.009525,63.476490,0.894751,0.446565,0.428555,0.004936
1000.000000,1000.000000,0.250977,-1.006347,0.053223,1000.000000,-27.711868,38.749695,-22.445679,1000.000000,59.099960,14.399963,-117.750000,14.691268,-3.857520,63.903484,0.237553,0.002275,-0.000074,-0.970479,0.000587,-0.000010,0.041696,0.000775,0.000025,-12.122517,0.259481,-0.100592,-0.020514,-0.139406,-0.753233,-3.554114,0.087915,-0.822632,0.448617,0.000230,-0.000469,0.093268,0.000013,0.001183,-0.888844,0.000118,-0.000111,14.691268,0.253611,0.967306,0.205336,0.006493,-3.857520,-0.067276,0.997734,0.305636,0.010501,63.903484,0.898054,0.439885,0.426994,-0.001560
1010.000000,1010.000000,0.252930,-0.995605,0.031738,1010.000000,-28.566360,39.360046,-22.506714,1010.000000,61.799957,14.399963,-117.750000,14.895465,-3.550539,64.327965,0.239552,0.001999,-0.000276,-0.969955,0.000524,-0.000063,0.042451,0.000755,-0.000020,-10.963548,1.158969,0.899487,-0.264755,-0.244241,-0.104835,-2.759651,0.794463,0.706548,0.448825,0.000208,-0.000022,0.094451,0.001183,0.001169,-0.888614,0.000230,0.000112,14.895465,0.257056,0.966396,0.204197,-0.001139,-3.550539,-0.061929,0.998081,0.306980,0.001344,64.327965,0.901289,0.433219,0.424480,-0.002514
1020.000000,1020.000000,0.257812,-1.014160,0.033691,1020.000000,-29.481888,39.176941,-23.361206,1020.000000,61.949966,14.249954,-118.650009,15.105969,-3.241212,64.741493,0.241255,0.001703,-0.000296,-0.969516,0.000439,-0.000085,0.042843,0.000392,-0.000363,-9.920073,1.043475,-0.115494,-1.246205,-0.981450,-0.737209,-2.781284,-0.021633,-0.816097,0.449667,0.000842,0.000633,0.096255,0.001804,0.000622,-0.887995,0.000619,0.000389,15.105969,0.260605,0.965445,0.210505,0.006308,-3.241212,-0.056540,0.998400,0.309328,0.002347,64.741493,0.904392,0.426703,0.413528,-0.010952
1030.000000,1030.000000,0.267578,-1.006836,0.026855,1030.000000,-31.068802,39.176941,-23.788452,1030.000000,61.949966,13.649963,-119.250000,15.318274,-2.922435,65.145340,0.242798,0.001543,-0.000160,-0.969134,0.000382,-0.000058,0.042756,-0.000087,-0.000479,-9.570044,0.350029,-0.693446,-1.964351,-0.718146,0.263305,-2.381889,0.399395,0.421029,0.451067,0.001400,0.000558,0.098128,0.001873,0.000069,-0.887079,0.000915,0.000296,15.318274,0.264181,0.964473,0.212305,0.001801,-2.922435,-0.050984,0.998699,0.318776,0.009449,65.145340,0.907377,0.420318,0.403847,-0.009682
1040.000000,1040.000000,0.267578,-0.984863,0.029297,1040.000000,-32.411575,39.054871,-24.337769,1040.000000,61.949966,13.649963,-119.250000,15.533575,-2.596282,65.538216,0.244375,0.001577,0.000033,-0.968761,0.000373,-0.000008,0.042237,-0.000519,-0.000432,-8.980082,0.589962,0.239933,-2.730779,-0.766429,-0.048283,-2.124217,0.257672,-0.141723,0.452609,0.001542,0.000143,0.099663,0.001535,-0.000339,-0.886122,0.000957,0.000042,15.533575,0.267803,0.963474,0.215301,0.002995,-2.596282,-0.045298,0.998973,0.326153,0.007377,65.538216,0.910238,0.414086,0.392876,-0.010971
1050.000000,1050.000000,0.280273,-0.997070,0.033691,1050.000000,-34.852982,39.848328,-24.398804,1050.000000,61.649963,13.649963,-117.750000,15.747264,-2.251794,65.929146,0.246155,0.001780,0.000204,-0.968345,0.000416,0.000042,0.041429,-0.000807,-0.000288,-9.457236,-0.477155,-1.067117,-2.545983,0.184797,0.951226,-1.413364,0.710853,0.453181,0.454139,0.001530,-0.000013,0.100780,0.001117,-0.000418,-0.885213,0.000909,-0.000048,15.747264,0.271394,0.962468,0.213689,-0.001612,-2.251794,-0.039291,0.999228,0.344488,0.018335,65.929146,0.913042,0.407866,0.390930,-0.001945
1060.000000,1060.000000,0.290039,-0.988769,0.018066,1060.000000,-35.463333,41.069031,-24.703979,1060.000000,61.649963,14.399963,-117.000000,15.962191,-1.907011,66.322266,0.248295,0.002140,0.000360,-0.967842,0.000503,0.000087,0.040390,-0.001039,-0.000232,-8.106602,1.350635,1.827789,-1.958598,0.587385,0.402588,-0.991141,0.422223,-0.288630,0.455685,0.001547,0.000017,0.101705,0.000925,-0.000192,-0.884312,0.000901,-0.000008,15.962191,0.275003,0.961443,0.214927,0.001238,-1.907011,-0.033277,0.999446,0.344783,0.000294,66.322266,0.915819,0.401592,0.393120,0.002190
1070.000000,1070.000000,0.280273,-0.979492,0.023926,1070.000000,-37.172318,42.533875,-24.398804,1070.000000,61.649963,14.399963,-117.000000,16.172815,-1.550820,66.719803,0.250831,0.002536,0.000396,-0.967243,0.000599,0.000096,0.039049,-0.001341,-0.000302,-7.891060,0.215541,-1.135093,-1.180223,0.778375,0.190990,-0.017245,0.973897,0.551674,0.457255,0.001570,0.000023,0.102699,0.000993,0.000068,-0.883386,0.000926,0.000024,16.172815,0.278535,0.960426,0.210625,-0.004302,-1.550820,-0.027064,0.999634,0.356192,0.011409,66.719803,0.918583,0.395228,0.397537,0.004417
1080.000000,1080.000000,0.301758,-0.985351,0.021484,1080.000000,-37.843704,45.219421,-24.642944,1080.000000,62.699966,13.649963,-117.450012,16.385021,-1.193339,67.133560,0.253715,0.002884,0.000348,-0.966553,0.000690,0.000091,0.037473,-0.001576,-0.000235,-6.671520,1.219540,1.003999,0.704086,1.884309,1.105935,0.348468,0.365712,-0.608184,0.458857,0.001602,0.000033,0.103654,0.000955,-0.000038,-0.882443,0.000943,0.000017,16.385021,0.282091,0.959388,0.212206,0.001581,-1.193339,-0.020826,0.999783,0.357481,0.001289,67.133560,0.921413,0.388584,0.413757,0.016220
1090.000000,1090.000000,0.285644,-1.000000,0.016602,1090.000000,-37.904739,47.538757,-24.887085,1090.000000,62.699966,15.149963,-118.800003,16.599094,-0.840377,67.559563,0.256868,0.003153,0.000269,-0.965786,0.000767,0.000077,0.035727,-0.001745,-0.000169,-4.946632,1.724888,0.505348,2.075226,1.371140,-0.513169,0.681769,0.333301,-0.032411,0.460465,0.001607,0.000005,0.104463,0.000809,-0.000147,-0.881510,0.000933,-0.000010,16.599094,0.285673,0.958327,0.214073,0.001867,-0.840377,-0.014667,0.999892,0.352962,-0.004519,67.559563,0.924277,0.381723,0.426003,0.012245
1100.000000,1100.000000,0.282227,-1.000000,0.012207,1100.000000,-38.698196,49.980164,-25.863647,1100.000000,61.199966,15.149963,-118.800003,16.822113,-0.484414,67.999298,0.259965,0.003097,-0.000056,-0.965027,0.000759,-0.000008,0.033773,-0.001955,-0.000209,-4.050303,0.896330,-0.828558,3.438710,1.363484,-0.007656,0.283562,-0.398207,-0.731508,0.461683,0.001219,-0.000388,0.105405,0.000943,0.000134,-0.880760,0.000750,-0.000183,16.822113,0.289401,0.957208,0.223019,0.008945,-0.484414,-0.008455,0.999964,0.355963,0.003001,67.999298,0.927179,0.374618,0.439735,0.013733
1110.000000,1110.000000,0.289551,-0.991211,0.014160,1110.000000,-39.857864,51.139832,-25.863647,1110.000000,62.699966,15.149963,-118.200012,17.044018,-0.121691,68.440666,0.262801,0.002836,-0.000262,-0.964331,0.000696,-0.000063,0.031630,-0.002143,-0.000188,-3.565174,0.485128,-0.411201,3.447233,0.008523,-1.354962,0.852264,0.568703,0.966910,0.462320,0.000637,-0.000582,0.106580,0.001174,0.000232,-0.880285,0.000476,-0.000274,17.044018,0.293106,0.956080,0.221905,-0.001114,-0.121691,-0.002124,0.999998,0.362723,0.006760,68.440666,0.930038,0.367465,0.441368,0.001633
1120.000000,1120.000000,0.301269,-1.001465,0.004395,1120.000000,-41.566849,52.116394,-26.351929,1120.000000,62.699966,14.399963,-118.800003,17.269480,0.253229,68.882019,0.265521,0.002720,-0.000116,-0.963659,0.000673,-0.000023,0.029333,-0.002297,-0.000154,-3.633266,-0.068092,-0.553221,3.266857,-0.180376,-0.188899,0.902331,0.050067,-0.518636,0.462751,0.000431,-0.000206,0.107694,0.001114,-0.000061,-0.879922,0.000362,-0.000113,17.269480,0.296866,0.954919,0.225462,0.003557,0.253229,0.004420,0.999990,0.374919,0.012196,68.882019,0.932841,0.360290,0.441353,-0.000015
1130.000000,1130.000000,0.278809,-0.990234,0.002930,1130.000000,-42.604446,52.116394,-26.596069,1130.000000,61.049957,14.399963,-118.800003,17.495899,0.633752,69.313904,0.268124,0.002603,-0.000117,-0.963010,0.000648,-0.000024,0.026845,-0.002487,-0.000190,-3.039629,0.593637,0.661729,2.155348,-1.111509,-0.931133,1.178262,0.275931,0.225864,0.462973,0.000222,-0.000209,0.108449,0.000755,-0.000358,-0.879713,0.000209,-0.000153,17.495899,0.300638,0.953738,0.226419,0.000957,0.633752,0.011061,0.999939,0.380523,0.005604,69.313904,0.935530,0.353248,0.431885,-0.009468
1140.000000,1140.000000,0.272461,-1.001465,-0.012207,1140.000000,-44.374466,51.200867,-26.412964,1140.000000,62.099960,18.299957,-117.900009,17.718540,1.027280,69.728004,0.270280,0.002156,-0.000447,-0.962481,0.000530,-0.000119,0.024083,-0.002763,-0.000275,-3.185573,-0.145943,-0.739580,0.254458,-1.900890,-0.789381,1.834960,0.656697,0.380766,0.462773,-0.000200,-0.000422,0.109400,0.000951,0.000196,-0.879700,0.000013,-0.000197,17.718540,0.304341,0.952563,0.222641,-0.003778,1.027280,0.017928,0.999839,0.393528,0.013005,69.728004,0.938058,0.346477,0.414101,-0.017784
1150.000000,1150.000000,0.283691,-0.993652,-0.011230,1150.000000,-45.228958,49.674988,-26.718140,1150.000000,62.249954,14.699966,-117.900009,17.941568,1.425013,70.118965,0.271852,0.001572,-0.000584,-0.962111,0.000370,-0.000160,0.020964,-0.003119,-0.000356,-2.431329,0.754244,0.900187,-2.069600,-2.324058,-0.423167,1.961826,0.126866,-0.529831,0.462467,-0.000306,-0.000106,0.111042,0.001642,0.000690,-0.879656,0.000045,0.000032,17.941568,0.308047,0.951371,0.223028,0.000387,1.425013,0.024869,0.999691,0.397733,0.004205,70.118965,0.940401,0.340068,0.390961,-0.023140
1160.000000,1160.000000,0.298828,-0.994629,-0.001953,1160.000000,-46.083450,49.674988,-26.473999,1160.000000,62.249954,16.349960,-117.450012,18.159269,1.827118,70.501877,0.273151,0.001299,-0.000273,-0.961809,0.000301,-0.000068,0.017639,-0.003325,-0.000206,-1.732026,0.699303,-0.054941,-2.728667,-0.659067,1.664991,2.595937,0.634111,0.507245,0.462370,-0.000097,0.000208,0.112760,0.001718,0.000076,-0.879488,0.000167,0.000123,18.159269,0.311660,0.950194,0.217701,-0.005327,1.827118,0.031884,0.999492,0.402104,0.004371,70.501877,0.942652,0.333776,0.382912,-0.008049
1170.000000,1170.000000,0.295410,-0.996582,-0.008789,1170.000000,-45.412064,49.919128,-26.168823,1170.000000,62.099960,16.349960,-117.450012,18.371185,2.218504,70.878983,0.274473,0.001322,0.000023,-0.961488,0.000322,0.000021,0.014356,-0.003283,0.000042,0.373933,2.105959,1.406656,-3.087855,-0.359188,0.299879,3.224707,0.628770,-0.005342,0.462471,0.000101,0.000198,0.114359,0.001599,-0.000119,-0.879229,0.000260,0.000092,18.371185,0.315172,0.949035,0.211916,-0.005785,2.218504,0.038711,0.999250,0.391387,-0.010718,70.878983,0.944829,0.327565,0.377106,-0.005806
1180.000000,1180.000000,0.321289,-0.985351,0.003418,1180.000000,-45.839310,51.322937,-26.229858,1180.000000,63.149963,15.749954,-116.550003,18.581295,2.609925,71.261360,0.276022,0.001549,0.000227,-0.961085,0.000402,0.000081,0.011269,-0.003088,0.000195,1.248532,0.874599,-1.231360,-2.295563,0.792292,1.151480,3.437534,0.212827,-0.415942,0.462852,0.000381,0.000281,0.115924,0.001565,-0.000034,-0.878823,0.000406,0.000146,18.581295,0.318650,0.947872,0.210110,-0.001806,2.609925,0.045536,0.998963,0.391420,0.000033,71.261360,0.946994,0.321252,0.382378,0.005272
1190.000000,1190.000000,0.322754,-0.987793,-0.003906,1190.000000,-45.778275,52.482605,-26.107788,1190.000000,63.149963,17.699966,-116.550003,18.788450,2.996206,71.645866,0.278079,0.002057,0.000508,-0.960520,0.000565,0.000162,0.008505,-0.002763,0.000325,2.511113,1.262581,0.387982,-1.795491,0.500072,-0.292221,3.794424,0.356890,0.144063,0.463715,0.000863,0.000482,0.117465,0.001541,-0.000024,-0.878163,0.000660,0.000254,18.788450,0.322075,0.946714,0.207155,-0.002954,2.996206,0.052270,0.998633,0.386282,-0.005138,71.645866,0.949128,0.314889,0.384506,0.002129
1200.000000,1200.000000,0.334961,-0.999511,-0.005371,1200.000000,-45.900345,53.825378,-27.145386,1200.000000,63.899963,17.699966,-116.550003,19.004793,3.378885,72.033775,0.280734,0.002655,0.000598,-0.959767,0.000754,0.000189,0.006048,-0.002457,0.000306,3.481707,0.970594,-0.291987,-1.156005,0.639487,0.139415,2.997360,-0.797065,-1.153955,0.465058,0.001343,0.000479,0.119354,0.001889,0.000348,-0.877198,0.000965,0.000305,19.004793,0.325647,0.945491,0.216343,0.009188,3.378885,0.058938,0.998262,0.382678,-0.003603,72.033775,0.951239,0.308456,0.387909,0.003403
1210.000000,1210.000000,0.328613,-0.996582,-0.009277,1210.000000,-46.266556,54.862976,-27.023315,1210.000000,64.649963,15.449966,-116.250000,19.219330,3.760184,72.421394,0.283849,0.003115,0.000460,-0.958861,0.000905,0.000151,0.003795,-0.002253,0.000204,4.123089,0.641382,-0.329212,-0.858436,0.297569,-0.341917,3.366011,0.368651,1.165716,0.466884,0.001826,0.000483,0.121257,0.001903,0.000014,-0.875966,0.001232,0.000266,19.219330,0.329185,0.944265,0.214537,-0.001806,3.760184,0.065580,0.997847,0.381299,-0.001379,72.421394,0.953304,0.302014,0.387619,-0.000290
1220.000000,1220.000000,0.335937,-0.997070,-0.017578,1220.000000,-46.022415,57.243347,-27.999878,1220.000000,64.649963,16.199966,-116.850006,19.443209,4.134039,72.821136,0.287248,0.003399,0.000284,-0.957855,0.001007,0.000102,0.001639,-0.002157,0.000096,5.278186,1.155097,0.513715,0.701498,1.559933,1.262364,2.639709,-0.726302,-1.094953,0.469167,0.002283,0.000457,0.122442,0.001185,-0.000718,-0.874580,0.001386,0.000154,19.443209,0.332872,0.942972,0.223879,0.009342,4.134039,0.072090,0.997398,0.373856,-0.007444,72.821136,0.955387,0.295356,0.399742,0.012123
1230.000000,1230.000000,0.317383,-1.009277,-0.021973,1230.000000,-46.022415,58.464050,-28.793335,1230.000000,64.649963,16.199966,-116.850006,19.674477,4.501257,73.221169,0.290667,0.003418,0.000020,-0.956824,0.001031,0.000024,-0.000562,-0.002201,-0.000044,6.256744,0.978558,-0.176539,1.016876,0.315378,-1.244555,2.140333,-0.499376,0.226927,0.471474,0.002307,0.000024,0.122948,0.000506,-0.000679,-0.873268,0.001313,-0.000073,19.674477,0.336676,0.941621,0.231268,0.007389,4.501257,0.078481,0.996916,0.367218,-0.006638,73.221169,0.957426,0.288678,0.400032,0.000290
1240.000000,1240.000000,0.314453,-1.020996,-0.016113,1240.000000,-46.083450,56.816101,-30.075073,1240.000000,64.649963,16.949966,-117.600006,19.917307,4.866217,73.593796,0.293693,0.003026,-0.000392,-0.955896,0.000928,-0.000102,-0.002809,-0.002247,-0.000046,6.719779,0.463035,-0.515523,-1.442394,-2.459269,-2.774647,1.208266,-0.932066,-0.432691,0.473391,0.001917,-0.000390,0.123186,0.000238,-0.000268,-0.872196,0.001071,-0.000241,19.917307,0.340664,0.940185,0.242830,0.011562,4.866217,0.084829,0.996395,0.364960,-0.002257,73.593796,0.959283,0.282445,0.372627,-0.027405
1250.000000,1250.000000,0.296387,-1.015625,-0.008301,1250.000000,-46.632767,54.985046,-29.464722,1250.000000,64.799957,16.949966,-117.600006,20.152020,5.231777,73.938164,0.295958,0.002266,-0.000760,-0.955188,0.000708,-0.000221,-0.004904,-0.002095,0.000152,6.826138,0.106359,-0.356676,-3.862264,-2.419870,0.039399,2.160748,0.952482,1.884548,0.474936,0.001545,-0.000372,0.123420,0.000234,-0.000004,-0.871323,0.000874,-0.000198,20.152020,0.344512,0.938782,0.234713,-0.008118,5.231777,0.091185,0.995834,0.365560,0.000600,73.938164,0.960964,0.276675,0.344368,-0.028259
1260.000000,1260.000000,0.303223,-1.008301,-0.011230,1260.000000,-46.510696,52.970886,-29.464722,1260.000000,64.949966,19.649963,-113.850006,20.383722,5.590959,74.253242,0.297359,0.001400,-0.000865,-0.954743,0.000446,-0.000262,-0.006676,-0.001772,0.000323,7.539870,0.713732,0.607373,-6.236940,-2.374676,0.045194,2.440253,0.279505,-0.672976,0.476447,0.001511,-0.000035,0.124175,0.000755,0.000522,-0.870390,0.000933,0.000059,20.383722,0.348306,0.937381,0.231703,-0.003010,5.590959,0.097426,0.995243,0.359181,-0.006379,74.253242,0.962471,0.271386,0.315079,-0.029289
1270.000000,1270.000000,0.303711,-1.005371,-0.012207,1270.000000,-47.365189,50.956726,-28.732300,1270.000000,64.949966,18.749954,-115.800003,20.604481,5.953088,74.539627,0.298078,0.000720,-0.000681,-0.954507,0.000236,-0.000210,-0.008138,-0.001463,0.000309,7.230302,-0.309568,-1.023300,-8.386143,-2.149203,0.225473,3.387366,0.947112,0.667607,0.478169,0.001722,0.000211,0.125952,0.001777,0.001022,-0.869190,0.001200,0.000268,20.604481,0.351915,0.936032,0.220758,-0.010944,5.953088,0.103714,0.994607,0.362130,0.002948,74.539627,0.963815,0.266572,0.286385,-0.028694
1280.000000,1280.000000,0.333496,-1.000000,-0.019043,1280.000000,-48.280716,51.445007,-27.450562,1280.000000,65.699966,18.749954,-115.800003,20.808836,6.318473,74.822441,0.298552,0.000474,-0.000246,-0.954347,0.000160,-0.000076,-0.009408,-0.001269,0.000194,6.861351,-0.368952,-0.059384,-7.927229,0.458913,2.608116,4.766595,1.379230,0.432117,0.479973,0.001804,0.000082,0.128364,0.002412,0.000635,-0.867841,0.001348,0.000148,20.808836,0.355251,0.934771,0.204355,-0.016403,6.318473,0.110055,0.993926,0.365385,0.003255,74.822441,0.965119,0.261811,0.282814,-0.003571
1290.000000,1290.000000,0.331543,-1.011230,-0.014648,1290.000000,-49.013138,52.238464,-27.389526,1290.000000,66.149963,19.499954,-115.500000,21.009315,6.685121,75.104729,0.299223,0.000671,0.000197,-0.954125,0.000222,0.000063,-0.010565,-0.001157,0.000112,6.672990,-0.188361,0.180591,-7.185466,0.741764,0.282850,4.842890,0.076295,-1.302935,0.481806,0.001833,0.000028,0.130922,0.002558,0.000146,-0.866443,0.001399,0.000051,21.009315,0.358520,0.933522,0.200480,-0.003876,6.685121,0.116413,0.993201,0.366647,0.001262,75.104729,0.966397,0.257053,0.282288,-0.000526
1300.000000,1300.000000,0.350098,-0.989258,-0.042480,1300.000000,-50.294876,53.581238,-26.840210,1300.000000,65.399963,18.749954,-115.500000,21.201742,7.058475,75.391800,0.300335,0.001111,0.000440,-0.953761,0.000364,0.000141,-0.011792,-0.001227,-0.000070,5.949984,-0.723006,-0.534646,-5.954173,1.231293,0.489530,5.361460,0.518570,0.442275,0.483641,0.001835,0.000002,0.133478,0.002557,-0.000001,-0.865029,0.001414,0.000015,21.201742,0.361653,0.932313,0.192427,-0.008053,7.058475,0.122882,0.992421,0.373354,0.006707,75.391800,0.967673,0.252208,0.287071,0.004784
1310.000000,1310.000000,0.354980,-0.991699,-0.029297,1310.000000,-50.111771,55.290222,-26.901245,1310.000000,65.399963,18.749954,-113.700012,21.393024,7.424411,75.687233,0.302080,0.001746,0.000634,-0.953189,0.000572,0.000208,-0.013319,-0.001527,-0.000299,6.667153,0.717169,1.440176,-4.454773,1.499399,0.268106,5.231852,-0.129609,-0.648179,0.485347,0.001706,-0.000129,0.135765,0.002287,-0.000270,-0.863717,0.001312,-0.000101,21.393024,0.364763,0.931100,0.191282,-0.001144,7.424411,0.129218,0.991616,0.365936,-0.007418,75.687233,0.968961,0.247215,0.295433,0.008362
1320.000000,1320.000000,0.352539,-0.989746,-0.042480,1320.000000,-50.233841,55.534363,-26.046753,1320.000000,66.599960,18.749954,-113.700012,21.574989,7.786425,75.976242,0.304469,0.002389,0.000643,-0.952402,0.000787,0.000216,-0.015136,-0.001817,-0.000291,7.006238,0.339085,-0.378084,-4.467212,-0.012438,-1.511837,5.969234,0.737383,0.866992,0.487119,0.001772,0.000066,0.137645,0.001880,-0.000406,-0.862420,0.001296,-0.000016,21.574989,0.367719,0.929937,0.181965,-0.009317,7.786425,0.135481,0.990780,0.362013,-0.003923,75.976242,0.970195,0.242324,0.289009,-0.006424
1330.000000,1330.000000,0.346191,-0.991699,-0.039551,1330.000000,-50.783157,55.900574,-25.192261,1330.000000,66.449966,21.149963,-113.250000,21.748274,8.149077,76.259743,0.307229,0.002760,0.000371,-0.951480,0.000922,0.000134,-0.017195,-0.002059,-0.000242,6.881339,-0.124899,-0.463984,-4.344947,0.122265,0.134703,6.621366,0.652131,-0.085252,0.489169,0.002049,0.000277,0.139486,0.001841,-0.000039,-0.860963,0.001457,0.000161,21.748274,0.370529,0.928821,0.173285,-0.008680,8.149077,0.141749,0.989903,0.362653,0.000639,76.259743,0.971382,0.237521,0.283501,-0.005508
1340.000000,1340.000000,0.340332,-0.977051,-0.020508,1340.000000,-50.294876,57.243347,-24.948120,1340.000000,66.449966,23.249954,-113.400009,21.919142,8.502239,76.547661,0.310072,0.002843,0.000084,-0.950517,0.000963,0.000041,-0.019291,-0.002096,-0.000037,7.733563,0.852224,0.977124,-3.282535,1.062412,0.940147,6.609201,-0.012164,-0.664295,0.491311,0.002142,0.000093,0.142176,0.002690,0.000849,-0.859302,0.001661,0.000204,21.919142,0.373298,0.927712,0.170868,-0.002417,8.502239,0.147848,0.989010,0.353162,-0.009491,76.547661,0.972564,0.232636,0.287918,0.004417
1350.000000,1350.000000,0.350586,-0.980957,-0.030762,1350.000000,-51.027298,58.708191,-23.727417,1350.000000,65.549957,23.249954,-113.400009,22.078043,8.857753,76.841919,0.312892,0.002820,-0.000023,-0.949554,0.000964,0.000001,-0.021126,-0.001835,0.000261,7.316449,-0.417114,-1.269339,-2.181283,1.101251,0.038839,7.507222,0.898020,0.910184,0.493156,0.001846,-0.000296,0.146182,0.004006,0.001316,-0.857571,0.001731,0.000070,22.078043,0.375869,0.926673,0.158901,-0.011967,8.857753,0.153982,0.988074,0.355514,0.002352,76.841919,0.973746,0.227639,0.294258,0.006340
1360.000000,1360.000000,0.358398,-0.967773,-0.029785,1360.000000,-50.905228,59.867859,-23.788452,1360.000000,67.499954,21.599960,-112.800003,22.237894,9.206902,77.140060,0.315803,0.002911,0.000091,-0.948553,0.001001,0.000037,-0.022712,-0.001586,0.000249,7.724511,0.408062,0.825176,-1.457337,0.723947,-0.377304,7.074482,-0.432740,-1.330760,0.494697,0.001540,-0.000305,0.150786,0.004603,0.000597,-0.855885,0.001686,-0.000045,22.237894,0.378453,0.925620,0.159851,0.000950,9.206902,0.160000,0.987117,0.349149,-0.006365,77.140060,0.974917,0.222569,0.298141,0.003883
1370.000000,1370.000000,0.360351,-0.974609,-0.038086,1370.000000,-51.637650,60.844421,-22.933960,1370.000000,67.499954,19.499954,-114.450012,22.389950,9.558055,77.439781,0.318916,0.003113,0.000202,-0.947474,0.001079,0.000078,-0.024183,-0.001471,0.000115,7.251330,-0.473181,-0.881243,-0.964584,0.492753,-0.231194,7.527544,0.453062,0.885802,0.496287,0.001590,0.000050,0.154565,0.003780,-0.000824,-0.854289,0.001596,-0.000090,22.389950,0.380908,0.924613,0.152056,-0.007795,9.558055,0.166047,0.986118,0.351153,0.002005,77.439781,0.976068,0.217466,0.299721,0.001579
1380.000000,1380.000000,0.335937,-0.978515,-0.033203,1380.000000,-52.553177,62.553406,-21.163940,1380.000000,66.149963,19.499954,-114.450012,22.525356,9.915897,77.747673,0.321994,0.003078,-0.000035,-0.946395,0.001079,0.000000,-0.025602,-0.001419,0.000053,6.323917,-0.927413,-0.454232,0.190511,1.155095,0.662342,8.789382,1.261838,0.808776,0.497678,0.001391,-0.000200,0.156597,0.002032,-0.001748,-0.853109,0.001180,-0.000416,22.525356,0.383092,0.923710,0.135406,-0.016649,9.915897,0.172202,0.985062,0.357842,0.006689,77.747673,0.977223,0.212217,0.307892,0.008171
1390.000000,1390.000000,0.330078,-0.974121,-0.039551,1390.000000,-52.736282,64.872742,-20.248413,1390.000000,66.149963,22.499954,-112.350006,22.652224,10.267080,78.069839,0.324576,0.002582,-0.000496,-0.945475,0.000920,-0.000159,-0.026975,-0.001373,0.000046,6.735882,0.411964,1.339377,1.830502,1.639992,0.484897,9.093361,0.303979,-0.957859,0.498475,0.000798,-0.000593,0.157524,0.000927,-0.001105,-0.852472,0.000637,-0.000543,22.652224,0.385137,0.922860,0.126867,-0.008539,10.267080,0.178237,0.983988,0.351183,-0.006660,78.069839,0.978400,0.206719,0.322166,0.014275
1400.000000,1400.000000,0.332031,-0.965820,-0.040039,1400.000000,-53.102493,65.666199,-18.539429,1400.000000,66.149963,22.499954,-112.350006,22.762154,10.616505,78.391449,0.326500,0.001924,-0.000658,-0.944772,0.000703,-0.000218,-0.028338,-0.001363,0.000010,6.620304,-0.115578,-0.527542,1.864569,0.034067,-1.605925,10.096109,1.002748,0.698770,0.498943,0.000468,-0.000330,0.158643,0.001119,0.000193,-0.851991,0.000481,-0.000155,22.762154,0.386907,0.922119,0.109930,-0.016937,10.616505,0.184234,0.982882,0.349424,-0.001759,78.391449,0.979545,0.201224,0.321609,-0.000557
1410.000000,1410.000000,0.334961,-0.956054,-0.043945,1410.000000,-53.163528,67.314148,-17.074585,1410.000000,66.599960,23.549957,-112.650009,22.857290,10.961262,78.721199,0.327937,0.001438,-0.000486,-0.944231,0.000541,-0.000161,-0.029743,-0.001405,-0.000042,6.781450,0.161146,0.276724,2.706052,0.841483,0.807416,10.741918,0.645808,-0.356940,0.499348,0.000404,-0.000064,0.160417,0.001774,0.000654,-0.851421,0.000569,0.000088,22.857290,0.388437,0.921475,0.095137,-0.014793,10.961262,0.190145,0.981756,0.344757,-0.004667,78.721199,0.980687,0.195583,0.329750,0.008141
1420.000000,1420.000000,0.332031,-0.957519,-0.043457,1420.000000,-51.637650,68.107605,-15.853882,1420.000000,66.599960,24.449966,-111.000000,22.939932,11.285957,79.050858,0.329051,0.001114,-0.000324,-0.943796,0.000435,-0.000107,-0.031203,-0.001460,-0.000055,8.421222,1.639771,1.478625,2.648404,-0.057648,-0.899131,11.058694,0.316776,-0.329032,0.499810,0.000462,0.000058,0.162922,0.002505,0.000731,-0.850674,0.000747,0.000178,22.939932,0.389766,0.920914,0.082642,-0.012495,11.285957,0.195706,0.980663,0.324696,-0.020061,79.050858,0.981796,0.189938,0.329659,-0.000092
1430.000000,1430.000000,0.354492,-0.969726,-0.050781,1430.000000,-49.867630,68.107605,-13.900757,1430.000000,67.649963,24.449966,-111.000000,23.002953,11.588688,79.372627,0.330001,0.000949,-0.000165,-0.943413,0.000383,-0.000051,-0.032736,-0.001533,-0.000073,10.123281,1.702060,0.062288,1.826674,-0.821730,-0.764082,12.007342,0.948648,0.631872,0.500596,0.000787,0.000325,0.166160,0.003239,0.000734,-0.849585,0.001090,0.000343,23.002953,0.390779,0.920485,0.063021,-0.019621,11.588688,0.200885,0.979615,0.302731,-0.021965,79.372627,0.982847,0.184421,0.321770,-0.007889
1440.000000,1440.000000,0.366211,-0.954101,-0.046875,1440.000000,-49.257278,69.572449,-13.656616,1440.000000,68.249954,23.099960,-112.050003,23.063713,11.881360,79.700539,0.331129,0.001129,0.000180,-0.942960,0.000453,0.000070,-0.034350,-0.001614,-0.000081,10.533100,0.409819,-1.292241,2.469095,0.642421,1.464151,11.195242,-0.812100,-1.760749,0.501875,0.001279,0.000492,0.169525,0.003364,0.000126,-0.848164,0.001420,0.000331,23.063713,0.391754,0.920070,0.060760,-0.002260,11.881360,0.205886,0.978576,0.292672,-0.010058,79.700539,0.983887,0.178793,0.327911,0.006142
1450.000000,1450.000000,0.364746,-0.940429,-0.027344,1450.000000,-48.646927,70.976257,-12.863159,1450.000000,68.849960,23.999954,-110.850006,23.117460,12.164021,80.033081,0.332739,0.001610,0.000481,-0.942338,0.000622,0.000169,-0.035830,-0.001480,0.000134,10.868271,0.335171,-0.074648,2.989182,0.520087,-0.122334,10.935330,-0.259912,0.552189,0.503653,0.001778,0.000499,0.172377,0.002853,-0.000511,-0.846534,0.001630,0.000210,23.117460,0.392617,0.919702,0.053747,-0.007013,12.164021,0.210711,0.977548,0.282661,-0.010011,80.033081,0.984908,0.173080,0.332542,0.004631
1460.000000,1460.000000,0.369629,-0.939941,-0.017578,1460.000000,-46.693802,72.196960,-11.337280,1460.000000,68.849960,25.649963,-111.000000,23.157785,12.423071,80.367844,0.334870,0.002131,0.000521,-0.941546,0.000792,0.000170,-0.036772,-0.000942,0.000537,12.418297,1.550026,1.214855,3.278605,0.289423,-0.230664,11.356789,0.421458,0.681370,0.505859,0.002206,0.000428,0.174982,0.002604,-0.000249,-0.844682,0.001851,0.000221,23.157785,0.393265,0.919425,0.040325,-0.013422,12.423071,0.215129,0.976586,0.259049,-0.023612,80.367844,0.985902,0.167322,0.334763,0.002220
1470.000000,1470.000000,0.355957,-0.936523,-0.021973,1470.000000,-45.412064,74.089050,-10.116577,1470.000000,70.049957,25.649963,-111.000000,23.188364,12.664715,80.711182,0.337350,0.002479,0.000348,-0.940651,0.000895,0.000103,-0.037014,-0.000242,0.000701,13.147397,0.729100,-0.820926,4.173241,0.894636,0.605213,11.407584,0.050796,-0.370663,0.508361,0.002502,0.000297,0.177826,0.002845,0.000240,-0.842583,0.002099,0.000248,23.188364,0.393755,0.919215,0.030579,-0.009747,12.664715,0.219245,0.975670,0.241644,-0.017406,80.711182,0.986887,0.161411,0.343338,0.008575
1480.000000,1480.000000,0.346191,-0.951172,-0.019043,1480.000000,-43.519974,74.089050,-7.369995,1480.000000,68.099960,23.999954,-110.100006,23.194382,12.882617,81.044312,0.339788,0.002439,-0.000041,-0.939786,0.000865,-0.000030,-0.036679,0.000335,0.000577,14.348653,1.201256,0.472156,3.166176,-1.007065,-1.901701,12.870523,1.462939,1.412144,0.510946,0.002584,0.000082,0.180604,0.002777,-0.000067,-0.840427,0.002157,0.000058,23.194382,0.393852,0.919174,0.006018,-0.024561,12.882617,0.222954,0.974829,0.217902,-0.023742,81.044312,0.987809,0.155671,0.333130,-0.010208
1490.000000,1490.000000,0.337891,-0.955078,-0.016602,1490.000000,-41.017532,73.539734,-5.599976,1490.000000,68.099960,24.149963,-109.350006,23.185337,13.070691,81.362228,0.341770,0.001981,-0.000458,-0.939099,0.000687,-0.000178,-0.035875,0.000804,0.000469,15.977380,1.628727,0.427471,1.707327,-1.458849,-0.451784,13.226318,0.355795,-1.107144,0.513281,0.002335,-0.000249,0.182749,0.002146,-0.000632,-0.838537,0.001889,-0.000268,23.185337,0.393707,0.919236,-0.009045,-0.015062,13.070691,0.226153,0.974092,0.188074,-0.029828,81.362228,0.988658,0.150187,0.317917,-0.015213
1500.000000,1500.000000,0.334961,-0.947265,-0.012695,1500.000000,-37.660599,71.403503,-3.463745,1500.000000,69.899963,24.149963,-109.350006,23.157148,13.220624,81.649773,0.343104,0.001335,-0.000647,-0.938658,0.000441,-0.000247,-0.034643,0.001232,0.000428,18.224609,2.247230,0.618503,-1.151888,-2.859215,-1.400366,13.852180,0.625861,0.270066,0.515432,0.002151,-0.000185,0.184180,0.001431,-0.000714,-0.836904,0.001634,-0.000255,23.157148,0.393254,0.919430,-0.028189,-0.019144,13.220624,0.228701,0.973497,0.149933,-0.038141,81.649773,0.989399,0.145224,0.287544,-0.030373
1510.000000,1510.000000,0.328125,-0.949219,-0.021973,1510.000000,-35.341263,68.534851,-2.609253,1510.000000,68.999954,24.899963,-108.150009,23.121954,13.342975,81.900192,0.343781,0.000677,-0.000658,-0.938466,0.000193,-0.000248,-0.033115,0.001528,0.000296,19.219397,0.994787,-1.252442,-4.464241,-3.312353,-0.453138,13.146445,-0.705734,-1.331595,0.517710,0.002278,0.000127,0.185178,0.000998,-0.000433,-0.835276,0.001628,-0.000006,23.121954,0.392690,0.919671,-0.035194,-0.007006,13.342975,0.230780,0.973006,0.122351,-0.027582,81.900192,0.990024,0.140898,0.250420,-0.037125
1520.000000,1520.000000,0.339844,-0.936035,-0.022949,1520.000000,-34.181595,65.483093,-1.205444,1520.000000,68.999954,23.999954,-108.000000,23.073877,13.449581,82.112328,0.343938,0.000157,-0.000520,-0.938463,0.000003,-0.000190,-0.031531,0.001585,0.000057,18.947706,-0.271690,-1.266478,-7.653244,-3.189003,0.123351,12.976483,-0.169962,0.535772,0.520048,0.002338,0.000060,0.185966,0.000788,-0.000210,-0.833646,0.001629,0.000001,23.073877,0.391918,0.920000,-0.048077,-0.012882,13.449581,0.232590,0.972575,0.106606,-0.015744,82.112328,0.990539,0.137231,0.212135,-0.038284
1530.000000,1530.000000,0.338379,-0.919922,-0.042480,1530.000000,-33.205032,63.713074,0.682831,1530.000000,69.449966,23.999954,-108.000000,23.008181,13.542853,82.299492,0.343890,-0.000048,-0.000205,-0.938524,-0.000062,-0.000064,-0.030195,0.001336,-0.000249,18.452368,-0.495338,-0.223648,-9.316145,-1.662901,1.526101,13.235351,0.258867,0.428829,0.522306,0.002257,-0.000081,0.186444,0.000478,-0.000310,-0.832127,0.001519,-0.000110,23.008181,0.390863,0.920449,-0.065697,-0.017620,13.542853,0.234173,0.972195,0.093272,-0.013334,82.299492,0.990982,0.133995,0.187164,-0.024971
1540.000000,1540.000000,0.335937,-0.935547,-0.039062,1540.000000,-31.679153,62.309265,4.650116,1540.000000,70.049957,25.199966,-108.600006,22.904799,13.618310,82.465790,0.343800,-0.000090,-0.000042,-0.938583,-0.000059,0.000003,-0.029380,0.000815,-0.000521,18.454863,0.002495,0.497833,-10.452161,-1.136016,0.526886,15.410857,2.175507,1.916639,0.524464,0.002158,-0.000099,0.186696,0.000252,-0.000226,-0.830712,0.001415,-0.000104,22.904799,0.389201,0.921153,-0.103382,-0.037685,13.618310,0.235453,0.971886,0.075457,-0.017816,82.465790,0.991367,0.131118,0.166298,-0.020866
1550.000000,1550.000000,0.344726,-0.916992,-0.036133,1550.000000,-27.894974,59.684753,7.518768,1550.000000,70.049957,25.499954,-106.200012,22.775251,13.654789,82.599945,0.343706,-0.000095,-0.000005,-0.938627,-0.000044,0.000014,-0.029067,0.000313,-0.000502,20.547571,2.092709,2.090214,-12.619745,-2.167584,-1.031569,16.292269,0.881412,-1.294095,0.526608,0.002144,-0.000014,0.187183,0.000487,0.000236,-0.829244,0.001468,0.000052,22.775251,0.387117,0.922030,-0.129547,-0.026165,13.654789,0.236071,0.971736,0.036479,-0.038978,82.599945,0.991671,0.128797,0.134155,-0.032143
1560.000000,1560.000000,0.375488,-0.936035,-0.060547,1560.000000,-25.453568,56.022644,9.044647,1560.000000,70.349960,25.499954,-106.200012,22.633617,13.666860,82.692513,0.343930,0.000224,0.000319,-0.938539,0.000088,0.000133,-0.029266,-0.000199,-0.000512,21.100283,0.552711,-1.539997,-15.547853,-2.928108,-0.760524,15.752754,-0.539515,-1.420926,0.528924,0.002316,0.000172,0.188135,0.000952,0.000465,-0.827553,0.001691,0.000223,22.633617,0.384837,0.922985,-0.141634,-0.012087,13.666860,0.236276,0.971686,0.012071,-0.024408,82.692513,0.991878,0.127194,0.092567,-0.041588
1570.000000,1570.000000,0.375488,-0.939941,-0.041504,1570.000000,-23.561478,53.215027,11.486053,1570.000000,69.899963,26.549957,-106.200012,22.471981,13.661119,82.752815,0.344814,0.000885,0.000661,-0.938190,0.000350,0.000261,-0.030053,-0.000787,-0.000588,21.000824,-0.099459,-0.652170,-17.350891,-1.803038,1.125071,16.075327,0.322573,0.862087,0.531322,0.002398,0.000082,0.189565,0.001430,0.000478,-0.825689,0.001864,0.000173,22.471981,0.382232,0.924067,-0.161636,-0.020002,13.661119,0.236179,0.971710,-0.005740,-0.017811,82.752815,0.992011,0.126150,0.060303,-0.032265
1580.000000,1580.000000,0.380859,-0.940918,-0.057129,1580.000000,-20.387650,51.994324,14.171600,1580.000000,69.899963,25.649963,-107.550003,22.289160,13.625905,82.797668,0.346357,0.001543,0.000658,-0.937581,0.000608,0.000259,-0.031274,-0.001221,-0.000434,22.056501,1.055677,1.155136,-17.417110,-0.066219,1.736818,16.543259,0.467932,0.145359,0.533404,0.002082,-0.000315,0.191343,0.001779,0.000349,-0.823935,0.001755,-0.000110,22.289160,0.379281,0.925281,-0.182821,-0.021185,13.625905,0.235582,0.971855,-0.035214,-0.029474,82.797668,0.992110,0.125374,0.044853,-0.015450
1590.000000,1590.000000,0.395508,-0.932129,-0.069824,1590.000000,-16.054153,52.970886,15.880585,1590.000000,70.799957,25.649963,-107.550003,22.095932,13.551047,82.849655,0.348533,0.002176,0.000634,-0.936716,0.000865,0.000257,-0.032981,-0.001707,-0.000487,24.048347,1.991846,0.936169,-15.310104,2.107006,2.173225,15.974768,-0.568491,-1.036423,0.534994,0.001590,-0.000492,0.193020,0.001677,-0.000102,-0.822511,0.001423,-0.000331,22.095932,0.376158,0.926555,-0.193228,-0.010406,13.551047,0.234312,0.972162,-0.074858,-0.039643,82.849655,0.992223,0.124473,0.051987,0.007133
1600.000000,1600.000000,0.376953,-0.962890,-0.064941,1600.000000,-13.368607,53.642273,18.810272,1600.000000,71.699966,24.299957,-106.950012,21.881145,13.454229,82.905640,0.351193,0.002660,0.000484,-0.935638,0.001078,0.000213,-0.035282,-0.002301,-0.000594,24.203630,0.155283,-1.836563,-13.616305,1.693799,-0.413207,16.561903,0.587135,1.155626,0.536420,0.001426,-0.000164,0.194101,0.001081,-0.000596,-0.821328,0.001184,-0.000239,21.881145,0.372682,0.927959,-0.214787,-0.021559,13.454229,0.232669,0.972556,-0.096818,-0.021960,82.905640,0.992344,0.123504,0.055984,0.003998
1610.000000,1610.000000,0.388184,-0.957519,-0.060547,1610.000000,-12.208939,53.764343,20.397186,1610.000000,71.699966,24.449966,-106.500000,21.658504,13.351289,82.959526,0.353934,0.002741,0.000081,-0.934501,0.001137,0.000060,-0.037939,-0.002657,-0.000356,22.794682,-1.408949,-1.564232,-12.540512,1.075793,-0.618006,15.752113,-0.809790,-1.396925,0.538073,0.001653,0.000227,0.194330,0.000229,-0.000851,-0.820191,0.001137,-0.000047,21.658504,0.369074,0.929400,-0.222641,-0.007854,13.351289,0.230921,0.972973,-0.102941,-0.006123,82.959526,0.992460,0.122570,0.053886,-0.002098
1620.000000,1620.000000,0.383789,-0.937500,-0.067383,1620.000000,-14.711380,52.482605,22.838593,1620.000000,71.699966,26.399963,-106.500000,21.419760,13.278403,82.996956,0.356640,0.002706,-0.000035,-0.933354,0.001147,0.000009,-0.040725,-0.002786,-0.000129,17.916426,-4.878256,-3.469307,-12.851604,-0.311091,-1.386885,15.769010,0.016896,0.826686,0.539923,0.001850,0.000197,0.194150,-0.000180,-0.000409,-0.819017,0.001174,0.000037,21.419760,0.365198,0.930930,-0.238745,-0.016104,13.278403,0.229683,0.973266,-0.072886,0.030055,82.996956,0.992540,0.121922,0.037430,-0.016457
1630.000000,1630.000000,0.410156,-0.916015,-0.073730,1630.000000,-17.335892,51.139832,23.509979,1630.000000,72.299957,26.399963,-106.500000,21.182896,13.236359,83.017609,0.359595,0.002955,0.000249,-0.932087,0.001267,0.000120,-0.043656,-0.002931,-0.000144,13.268472,-4.647954,0.230302,-13.146064,-0.294460,0.016631,14.031782,-1.737227,-1.754124,0.541779,0.001856,0.000006,0.194322,0.000172,0.000352,-0.817749,0.001268,0.000094,21.182896,0.361346,0.932432,-0.236864,0.001881,13.236359,0.228969,0.973434,-0.042045,0.030841,83.017609,0.992584,0.121564,0.020653,-0.016777
1640.000000,1640.000000,0.396484,-0.900879,-0.057617,1640.000000,-17.702103,48.820496,21.434784,1640.000000,71.999954,24.449966,-107.100006,20.975454,13.202509,83.012482,0.363081,0.003486,0.000531,-0.930589,0.001498,0.000231,-0.046651,-0.002995,-0.000064,11.125731,-2.142741,2.505213,-14.299936,-1.153872,-0.859412,9.762014,-4.269768,-2.532540,0.543544,0.001765,-0.000091,0.194677,0.000355,0.000182,-0.816493,0.001256,-0.000011,20.975454,0.357968,0.933734,-0.207441,0.029423,13.202509,0.228393,0.973569,-0.033850,0.008195,83.012482,0.992573,0.121653,-0.005127,-0.025780
1650.000000,1650.000000,0.399902,-0.920898,-0.060059,1650.000000,-18.617630,46.867371,19.481659,1650.000000,71.999954,24.899963,-106.500000,20.796152,13.181833,82.985771,0.366967,0.003885,0.000399,-0.928920,0.001669,0.000171,-0.049432,-0.002781,0.000214,8.597687,-2.528044,-0.385303,-14.951369,-0.651433,0.502439,5.935156,-3.826858,0.442910,0.545122,0.001578,-0.000187,0.194595,-0.000082,-0.000437,-0.815460,0.001033,-0.000223,20.796152,0.355044,0.934850,-0.179302,0.028139,13.181833,0.228042,0.973651,-0.020676,0.013174,82.985771,0.992516,0.122116,-0.026711,-0.021584
1660.000000,1660.000000,0.396484,-0.916504,-0.060547,1660.000000,-18.861771,43.876648,18.566132,1660.000000,73.499954,24.899963,-106.500000,20.634340,13.167088,82.927689,0.370915,0.003949,0.000063,-0.927217,0.001703,0.000034,-0.051876,-0.002444,0.000337,6.894310,-1.703376,0.824667,-16.483423,-1.532054,-0.880621,3.403753,-2.531403,1.295455,0.546641,0.001518,-0.000060,0.194080,-0.000515,-0.000433,-0.814565,0.000894,-0.000139,20.634340,0.352403,0.935848,-0.161812,0.017490,13.167088,0.227792,0.973710,-0.014746,0.005930,82.927689,0.992392,0.123122,-0.058083,-0.031372
1670.000000,1670.000000,0.397461,-0.929687,-0.057617,1670.000000,-21.181107,41.862488,18.627167,1670.000000,72.899963,24.449966,-105.000000,20.479910,13.178080,82.847931,0.374709,0.003793,-0.000155,-0.925570,0.001647,-0.000056,-0.053983,-0.002107,0.000338,3.324696,-3.569614,-1.866238,-16.888805,-0.405382,1.126672,2.008843,-1.394910,1.136493,0.548399,0.001758,0.000240,0.193342,-0.000738,-0.000224,-0.813559,0.001007,0.000112,20.479910,0.349879,0.936795,-0.154430,0.007381,13.178080,0.227978,0.973666,0.010992,0.025738,82.847931,0.992219,0.124503,-0.079758,-0.021675
1680.000000,1680.000000,0.384766,-0.922363,-0.072754,1680.000000,-21.303177,39.543152,18.627167,1680.000000,72.899963,26.249954,-104.850006,20.332855,13.192448,82.743683,0.378130,0.003421,-0.000372,-0.924067,0.001503,-0.000144,-0.055837,-0.001854,0.000252,2.147801,-1.176895,2.392720,-17.487814,-0.599009,-0.193626,0.666560,-1.342283,0.052627,0.550401,0.002002,0.000244,0.192722,-0.000619,0.000119,-0.812352,0.001206,0.000199,20.332855,0.347473,0.937690,-0.147055,0.007376,13.192448,0.228223,0.973609,0.014368,0.003376,82.743683,0.991991,0.126308,-0.104248,-0.024490
1690.000000,1690.000000,0.363769,-0.954590,-0.064453,1690.000000,-19.899368,36.186218,19.237518,1690.000000,73.199966,26.249954,-104.850006,20.186083,13.195020,82.605507,0.380771,0.002641,-0.000780,-0.922875,0.001192,-0.000310,-0.057583,-0.001746,0.000109,2.522424,0.374623,1.551517,-18.962318,-1.474504,-0.875496,0.019713,-0.646848,0.695435,0.552440,0.002038,0.000036,0.192741,0.000019,0.000638,-0.810963,0.001389,0.000183,20.186083,0.345070,0.938577,-0.146772,0.000282,13.195020,0.228266,0.973599,0.002572,-0.011796,82.605507,0.991684,0.128700,-0.138176,-0.033928
1700.000000,1700.000000,0.352051,-0.977539,-0.068359,1700.000000,-18.617630,33.378601,19.908905,1700.000000,74.099960,23.999954,-105.150009,20.037329,13.187014,82.439598,0.382073,0.001303,-0.001338,-0.922235,0.000640,-0.000552,-0.059187,-0.001604,0.000141,2.738898,0.216474,-0.158149,-19.714355,-0.752037,0.722467,-0.513829,-0.533542,0.113306,0.554495,0.002055,0.000017,0.193073,0.000332,0.000313,-0.809480,0.001483,0.000094,20.037329,0.342632,0.939470,-0.148754,-0.001982,13.187014,0.228130,0.973631,-0.008006,-0.010578,82.439598,0.991307,0.131571,-0.165909,-0.027733
1710.000000,1710.000000,0.351074,-0.987304,-0.057617,1710.000000,-17.396927,31.913757,21.068573,1710.000000,74.099960,26.399963,-105.000000,19.879850,13.168845,82.259529,0.381773,-0.000300,-0.001603,-0.922273,-0.000038,-0.000678,-0.060515,-0.001328,0.000277,2.868234,0.129336,-0.087138,-19.043533,0.670822,1.422859,-0.533003,-0.019174,0.514368,0.556621,0.002127,0.000072,0.193223,0.000150,-0.000182,-0.807984,0.001497,0.000014,19.879850,0.340049,0.940408,-0.157478,-0.008724,13.168845,0.227821,0.973703,-0.018168,-0.010162,82.259529,0.990888,0.134686,-0.180069,-0.014160
1720.000000,1720.000000,0.377930,-1.005371,-0.067383,1720.000000,-17.213821,30.754089,22.045135,1720.000000,74.099960,26.399963,-105.000000,19.714006,13.150413,82.068718,0.380184,-0.001589,-0.001289,-0.922864,-0.000591,-0.000553,-0.061498,-0.000983,0.000345,1.983227,-0.885006,-1.014342,-18.065872,0.977661,0.306839,-0.723681,-0.190678,-0.171504,0.558675,0.002053,-0.000073,0.193606,0.000383,0.000233,-0.806473,0.001510,0.000013,19.714006,0.337325,0.941388,-0.165844,-0.008366,13.150413,0.227508,0.973776,-0.018433,-0.000264,82.068718,0.990434,0.137985,-0.190811,-0.010742
1730.000000,1730.000000,0.393066,-0.983886,-0.055664,1730.000000,-18.312454,29.594421,22.777557,1730.000000,73.049957,23.399963,-105.450012,19.541672,13.143839,81.867737,0.378051,-0.002133,-0.000545,-0.923697,-0.000833,-0.000242,-0.062139,-0.000641,0.000342,-0.060064,-2.043292,-1.158285,-17.103069,0.962803,-0.014858,-1.128943,-0.405262,-0.214584,0.560393,0.001718,-0.000335,0.194029,0.000423,0.000040,-0.805179,0.001295,-0.000215,19.541672,0.334492,0.942398,-0.172335,-0.006491,13.143839,0.227396,0.973802,-0.006574,0.011859,81.867737,0.989944,0.141459,-0.200981,-0.010170
1740.000000,1740.000000,0.395019,-0.980957,-0.069336,1740.000000,-18.800735,27.702332,22.045135,1740.000000,73.049957,25.949966,-102.900009,19.377480,13.142561,81.649986,0.376041,-0.002010,0.000124,-0.924493,-0.000796,0.000037,-0.062500,-0.000361,0.000280,-1.345572,-1.285508,0.757784,-16.858093,0.244976,-0.717827,-2.896668,-1.767725,-1.362463,0.561710,0.001317,-0.000401,0.194008,-0.000021,-0.000443,-0.804265,0.000913,-0.000381,19.377480,0.331790,0.943353,-0.164192,0.008142,13.142561,0.227375,0.973807,-0.001278,0.005296,81.649986,0.989399,0.145220,-0.217751,-0.016769
1750.000000,1750.000000,0.384277,-0.984863,-0.064453,1750.000000,-18.373489,26.847839,21.556854,1750.000000,74.849960,25.949966,-102.900009,19.219217,13.137343,81.426041,0.374308,-0.001733,0.000277,-0.925180,-0.000688,0.000108,-0.062726,-0.000226,0.000134,-1.640954,-0.295382,0.990125,-15.577736,1.280357,1.035381,-4.269617,-1.372949,0.394776,0.563032,0.001322,0.000005,0.194114,0.000106,0.000127,-0.803315,0.000950,0.000037,19.219217,0.329183,0.944266,-0.158262,0.005930,13.137343,0.227286,0.973828,-0.005218,-0.003940,81.426041,0.988824,0.149086,-0.223946,-0.006195
1760.000000,1760.000000,0.390625,-0.978027,-0.064453,1760.000000,-18.068314,26.969910,21.190643,1760.000000,74.099960,23.849960,-103.200012,19.065798,13.129373,81.205208,0.372762,-0.001547,0.000186,-0.925794,-0.000614,0.000073,-0.062877,-0.000150,0.000076,-2.021787,-0.380833,-0.085450,-13.413251,2.164485,0.884128,-5.392933,-1.123316,0.249633,0.564701,0.001669,0.000347,0.194365,0.000251,0.000145,-0.802081,0.001233,0.000283,19.065798,0.326654,0.945144,-0.153419,0.004843,13.129373,0.227151,0.973860,-0.007971,-0.002753,81.205208,0.988242,0.152896,-0.220833,0.003113
1770.000000,1770.000000,0.386719,-0.960449,-0.058594,1770.000000,-17.763138,26.481628,20.580292,1770.000000,76.799957,24.449966,-103.650009,18.919827,13.118551,80.980789,0.371467,-0.001294,0.000252,-0.926313,-0.000519,0.000095,-0.062896,-0.000019,0.000131,-2.362600,-0.340813,0.040020,-11.965941,1.447309,-0.717175,-6.633892,-1.240959,-0.117643,0.566762,0.002061,0.000392,0.194080,-0.000285,-0.000537,-0.800696,0.001386,0.000152,18.919827,0.324245,0.945973,-0.145971,0.007448,13.118551,0.226967,0.973903,-0.010821,-0.002851,80.980789,0.987636,0.156766,-0.224419,-0.003586
1780.000000,1780.000000,0.381348,-0.961914,-0.070312,1780.000000,-17.274857,25.932312,19.908905,1780.000000,76.799957,23.999954,-103.500000,18.782114,13.103051,80.751419,0.370466,-0.001002,0.000293,-0.926718,-0.000405,0.000114,-0.062834,0.000062,0.000081,-2.490359,-0.127759,0.213053,-10.654855,1.311087,-0.136223,-7.802655,-1.168763,0.072196,0.569342,0.002580,0.000519,0.193167,-0.000913,-0.000628,-0.799084,0.001611,0.000226,18.782114,0.321970,0.946750,-0.137712,0.008259,13.103051,0.226703,0.973964,-0.015500,-0.004679,80.751419,0.987000,0.160718,-0.229370,-0.004951
1790.000000,1790.000000,0.374023,-0.949707,-0.075195,1790.000000,-16.603470,26.115417,19.603729,1790.000000,76.499954,23.999954,-103.500000,18.649128,13.081332,80.523804,0.369640,-0.000826,0.000176,-0.927044,-0.000325,0.000080,-0.062897,-0.000063,-0.000125,-2.422697,0.067662,0.195421,-8.714386,1.940469,0.629382,-8.492263,-0.689608,0.479155,0.572286,0.002944,0.000363,0.191835,-0.001332,-0.000419,-0.797301,0.001784,0.000172,18.649128,0.319772,0.947495,-0.132986,0.004726,13.081332,0.226334,0.974050,-0.021719,-0.006219,80.523804,0.986354,0.164638,-0.227615,0.001755
1800.000000,1800.000000,0.368164,-0.947265,-0.092285,1800.000000,-17.518997,25.382996,19.908905,1800.000000,75.749954,24.299957,-102.750000,18.514864,13.069563,80.288940,0.368864,-0.000776,0.000049,-0.927322,-0.000278,0.000048,-0.063358,-0.000460,-0.000397,-3.869585,-1.446888,-1.514550,-7.781717,0.932669,-1.007800,-8.507320,-0.015058,0.674551,0.575145,0.002859,-0.000085,0.190363,-0.001472,-0.000140,-0.795594,0.001706,-0.000078,18.514864,0.317551,0.948241,-0.134264,-0.001278,13.069563,0.226134,0.974096,-0.011769,0.009950,80.288940,0.985671,0.168680,-0.234863,-0.007248
1810.000000,1810.000000,0.372559,-0.956054,-0.094727,1810.000000,-18.434525,25.016785,20.336151,1810.000000,75.749954,23.549957,-102.450012,18.378145,13.068292,80.050995,0.368067,-0.000797,-0.000021,-0.927565,-0.000243,0.000035,-0.064424,-0.001066,-0.000606,-5.178830,-1.309245,0.137643,-6.548645,1.233072,0.300403,-8.372185,0.135136,0.150193,0.577661,0.002516,-0.000343,0.188970,-0.001393,0.000079,-0.794102,0.001493,-0.000214,18.378145,0.315287,0.948996,-0.136719,-0.002455,13.068292,0.226112,0.974101,-0.001271,0.010498,80.050995,0.984962,0.172772,-0.237946,-0.003082
1820.000000,1820.000000,0.344238,-0.928222,-0.120605,1820.000000,-19.411087,25.199890,22.106171,1820.000000,76.949966,23.549957,-102.450012,18.225721,13.078890,79.815659,0.367136,-0.000931,-0.000134,-0.927802,-0.000238,0.000006,-0.066290,-0.001866,-0.000800,-6.415571,-1.236741,0.072504,-4.870223,1.678422,0.445350,-6.932481,1.439703,1.304568,0.579919,0.002258,-0.000259,0.187584,-0.001386,0.000007,-0.792784,0.001318,-0.000175,18.225721,0.312761,0.949832,-0.152424,-0.015705,13.078890,0.226292,0.974059,0.010598,0.011869,79.815659,0.984244,0.176816,-0.235336,0.002609
1830.000000,1830.000000,0.354980,-0.922363,-0.141602,1830.000000,-17.152786,24.223328,22.472382,1830.000000,76.499954,25.199966,-102.900009,18.071430,13.082797,79.571846,0.365987,-0.001149,-0.000217,-0.928035,-0.000233,0.000004,-0.069311,-0.003020,-0.001154,-5.596285,0.819286,2.056027,-4.425376,0.444846,-1.233576,-6.931795,0.000687,-1.439017,0.582003,0.002085,-0.000173,0.186410,-0.001174,0.000213,-0.791532,0.001252,-0.000066,18.071430,0.310202,0.950671,-0.154291,-0.001867,13.082797,0.226359,0.974044,0.003907,-0.006691,79.571846,0.983483,0.181002,-0.243813,-0.008476
1840.000000,1840.000000,0.335449,-0.981445,-0.139648,1840.000000,-15.565872,19.218445,25.035858,1840.000000,76.649963,23.249954,-101.250000,17.893375,13.064375,79.280685,0.364474,-0.001513,-0.000364,-0.928299,-0.000263,-0.000030,-0.073620,-0.004309,-0.001289,-3.132411,2.463875,1.644589,-7.854893,-3.429516,-3.874362,-4.803194,2.128601,2.127914,0.583886,0.001883,-0.000202,0.185677,-0.000733,0.000441,-0.790317,0.001215,-0.000037,17.893375,0.307247,0.951630,-0.178055,-0.023764,13.064375,0.226046,0.974117,-0.018422,-0.022329,79.280685,0.982550,0.185998,-0.291161,-0.047348
1850.000000,1850.000000,0.323242,-1.000976,-0.139648,1850.000000,-14.711380,17.021179,25.585175,1850.000000,74.999954,24.899963,-102.600006,17.710754,13.044321,78.971191,0.362104,-0.002370,-0.000857,-0.928796,-0.000497,-0.000233,-0.078860,-0.005240,-0.000931,-2.734437,0.397974,-2.065901,-8.277529,-0.422636,3.006880,-4.764056,0.039138,-2.089463,0.585422,0.001536,-0.000346,0.185260,-0.000417,0.000316,-0.789278,0.001039,-0.000176,17.710754,0.304212,0.952604,-0.182621,-0.004566,13.044321,0.225705,0.974196,-0.020054,-0.001632,78.971191,0.981531,0.191303,-0.309494,-0.018333
1860.000000,1860.000000,0.322754,-1.009277,-0.124023,1860.000000,-13.856888,14.762878,26.561737,1860.000000,74.999954,23.999954,-103.500000,17.518068,13.023058,78.644302,0.358576,-0.003528,-0.001159,-0.929672,-0.000876,-0.000379,-0.084464,-0.005604,-0.000364,-2.359968,0.374469,-0.023505,-8.691334,-0.413805,0.008831,-4.301564,0.462492,0.423354,0.586149,0.000727,-0.000810,0.185156,-0.000104,0.000312,-0.788763,0.000515,-0.000524,17.518068,0.301007,0.953622,-0.192686,-0.010065,13.023058,0.225343,0.974279,-0.021263,-0.001209,78.644302,0.980424,0.196899,-0.326889,-0.017395
1870.000000,1870.000000,0.331055,-1.034179,-0.105957,1870.000000,-12.697220,12.992859,27.233124,1870.000000,76.499954,23.999954,-103.500000,17.317341,12.997173,78.306274,0.354096,-0.004480,-0.000952,-0.930892,-0.001221,-0.000345,-0.089752,-0.005288,0.000316,-1.716507,0.643462,0.268993,-8.570051,0.121283,0.535088,-4.154055,0.147509,-0.314982,0.586060,-0.000089,-0.000815,0.185170,0.000014,0.000118,-0.788825,-0.000062,-0.000577,17.317341,0.297664,0.954671,-0.200727,-0.008041,12.997173,0.224903,0.974381,-0.025885,-0.004622,78.306274,0.979245,0.202680,-0.338028,-0.011139
1880.000000,1880.000000,0.331055,-1.039551,-0.090820,1880.000000,-12.575150,10.429382,26.805878,1880.000000,77.699966,23.999954,-101.700012,17.118725,12.975691,77.949532,0.349003,-0.005093,-0.000613,-0.932388,-0.001496,-0.000275,-0.094071,-0.004319,0.000969,-2.113775,-0.397269,-1.040730,-9.185672,-0.615621,-0.736903,-5.054280,-0.900225,-1.047734,0.585961,-0.000099,-0.000011,0.185075,-0.000095,-0.000109,-0.788921,-0.000096,-0.000034,17.118725,0.294353,0.955697,-0.198616,0.002111,12.975691,0.224538,0.974465,-0.021482,0.004402,77.949532,0.977964,0.208773,-0.356743,-0.018715
1890.000000,1890.000000,0.333008,-1.038574,-0.094727,1890.000000,-12.636185,8.659363,26.683807,1890.000000,77.699966,24.449966,-101.550003,16.918787,12.958758,77.581322,0.343615,-0.005388,-0.000295,-0.934073,-0.001685,-0.000189,-0.097143,-0.003072,0.001247,-2.644428,-0.530652,-0.133384,-8.955263,0.230409,0.846029,-5.566951,-0.512671,0.387553,0.586518,0.000557,0.000657,0.185004,-0.000071,0.000024,-0.788524,0.000397,0.000494,16.918787,0.291016,0.956718,-0.199938,-0.001322,12.958758,0.224250,0.974532,-0.016932,0.004550,77.581322,0.976602,0.215054,-0.368210,-0.011467
1900.000000,1900.000000,0.334473,-1.031250,-0.107910,1900.000000,-14.101028,8.476257,25.463104,1900.000000,76.499954,24.449966,-101.550003,16.728302,12.958797,77.216751,0.338234,-0.005380,0.000008,-0.935818,-0.001746,-0.000061,-0.099204,-0.002061,0.001010,-4.462773,-1.818345,-1.287693,-7.192654,1.762609,1.532201,-7.065887,-1.498936,-0.986264,0.587585,0.001067,0.000510,0.185135,0.000131,0.000202,-0.787698,0.000826,0.000428,16.728302,0.287834,0.957680,-0.190485,0.009453,12.958797,0.224250,0.974532,0.000039,0.016972,77.216751,0.975214,0.221263,-0.364571,0.003639
1910.000000,1910.000000,0.335937,-1.035644,-0.122559,1910.000000,-14.650345,9.269714,24.791718,1910.000000,74.699966,23.999954,-102.000000,16.541992,12.965892,76.865623,0.333102,-0.005132,0.000248,-0.937491,-0.001672,0.000073,-0.100766,-0.001562,0.000499,-5.233909,-0.771136,1.047209,-4.618605,2.574049,0.811439,-7.885231,-0.819345,0.679591,0.588448,0.000862,-0.000205,0.185448,0.000314,0.000183,-0.786981,0.000718,-0.000108,16.541992,0.284718,0.958611,-0.186310,0.004175,12.965892,0.224371,0.974504,0.007094,0.007055,76.865623,0.973840,0.227236,-0.351128,0.013443
1920.000000,1920.000000,0.323242,-1.045410,-0.140137,1920.000000,-14.772415,9.452820,24.608612,1920.000000,78.149963,23.549957,-102.000000,16.355326,12.975729,76.522171,0.328236,-0.004866,0.000266,-0.939036,-0.001545,0.000127,-0.102332,-0.001566,-0.000004,-5.511023,-0.277114,0.494022,-2.829787,1.788818,-0.785231,-8.138053,-0.252821,0.566523,0.588932,0.000484,-0.000378,0.185656,0.000207,-0.000106,-0.786569,0.000411,-0.000306,16.355326,0.281593,0.959534,-0.186666,-0.000357,12.975729,0.224538,0.974465,0.009837,0.002743,76.522171,0.972460,0.233069,-0.343452,0.007675
1930.000000,1930.000000,0.321289,-1.043457,-0.146484,1930.000000,-14.833450,9.635925,24.608612,1930.000000,78.149963,23.849960,-100.500000,16.166698,12.988087,76.185699,0.323501,-0.004735,0.000131,-0.940468,-0.001431,0.000114,-0.104248,-0.001916,-0.000350,-5.685368,-0.174345,0.102769,-1.182369,1.647418,-0.141400,-8.163479,-0.025426,0.227396,0.589743,0.000811,0.000327,0.185559,-0.000097,-0.000304,-0.785984,0.000585,0.000174,16.166698,0.278433,0.960456,-0.188627,-0.001961,12.988087,0.224748,0.974417,0.012358,0.002521,76.185699,0.971075,0.238776,-0.336472,0.006981
1940.000000,1940.000000,0.296387,-1.027344,-0.151855,1940.000000,-14.223099,9.330750,25.707245,1940.000000,78.299957,23.849960,-100.500000,15.965406,12.996909,75.850250,0.318763,-0.004739,-0.000003,-0.941817,-0.001349,0.000082,-0.106639,-0.002391,-0.000475,-5.181195,0.504173,0.678518,-0.137616,1.044753,-0.602665,-7.105005,1.058474,1.083899,0.591273,0.001530,0.000719,0.185303,-0.000256,-0.000159,-0.784894,0.001090,0.000505,15.965406,0.275057,0.961428,-0.201292,-0.012665,12.996909,0.224898,0.974382,0.008822,-0.003535,75.850250,0.969660,0.244457,-0.335449,0.001022
1950.000000,1950.000000,0.308105,-1.013183,-0.156738,1950.000000,-13.185501,8.537292,26.012421,1950.000000,77.849960,24.749954,-102.000000,15.759492,12.998664,75.510651,0.314010,-0.004753,-0.000014,-0.943082,-0.001266,0.000083,-0.109515,-0.002876,-0.000485,-4.291632,0.889564,0.385391,0.351766,0.489382,-0.555371,-6.868655,0.236350,-0.822124,0.593104,0.001831,0.000301,0.185147,-0.000156,0.000100,-0.783548,0.001346,0.000256,15.759492,0.271600,0.962410,-0.205914,-0.004622,12.998664,0.224928,0.974375,0.001755,-0.007068,75.510651,0.968194,0.250200,-0.339600,-0.004150
1960.000000,1960.000000,0.316894,-1.009765,-0.142090,1960.000000,-12.514114,8.110046,25.951385,1960.000000,77.849960,22.799957,-101.250000,15.553005,12.997470,75.170853,0.309543,-0.004467,0.000286,-0.944183,-0.001100,0.000165,-0.112705,-0.003190,-0.000314,-3.811782,0.479850,-0.409714,1.148506,0.796740,0.307358,-6.976742,-0.108087,-0.344437,0.594745,0.001641,-0.000190,0.185007,-0.000140,0.000016,-0.782337,0.001212,-0.000134,15.553005,0.268130,0.963383,-0.206487,-0.000572,12.997470,0.224908,0.974380,-0.001194,-0.002949,75.170853,0.966693,0.255938,-0.339798,-0.000198
1970.000000,1970.000000,0.318848,-1.004883,-0.149414,1970.000000,-11.110306,7.438660,25.279999,1970.000000,77.549957,22.799957,-101.250000,15.352695,12.986268,74.828789,0.305691,-0.003852,0.000615,-0.945047,-0.000865,0.000236,-0.115926,-0.003221,-0.000031,-2.657734,1.154048,0.674198,1.639633,0.491127,-0.305613,-7.633103,-0.656361,-0.548274,0.596107,0.001362,-0.000279,0.184453,-0.000554,-0.000414,-0.781430,0.000906,-0.000305,15.352695,0.264760,0.964314,-0.200311,0.006176,12.986268,0.224718,0.974424,-0.011202,-0.010008,74.828789,0.965148,0.261704,-0.342064,-0.002266
1980.000000,1980.000000,0.318848,-0.998535,-0.137207,1980.000000,-10.255814,7.743835,24.120331,1980.000000,77.849960,23.249954,-99.900009,15.164083,12.970491,74.494217,0.302551,-0.003140,0.000711,-0.945676,-0.000628,0.000236,-0.118998,-0.003073,0.000148,-2.117210,0.540524,-0.613524,3.016931,1.377298,0.886171,-8.671876,-1.038773,-0.382411,0.597329,0.001221,-0.000141,0.183506,-0.000947,-0.000393,-0.780720,0.000710,-0.000197,15.164083,0.261584,0.965181,-0.188612,0.011699,12.970491,0.224449,0.974486,-0.015777,-0.004575,74.494217,0.963603,0.267336,-0.334572,0.007492
1990.000000,1990.000000,0.329590,-1.006347,-0.122559,1990.000000,-9.279251,8.964539,23.754120,1990.000000,77.849960,23.249954,-100.650009,14.980053,12.948550,74.176041,0.300160,-0.002391,0.000749,-0.946101,-0.000425,0.000203,-0.121645,-0.002647,0.000426,-1.497878,0.619332,0.078808,5.141466,2.124535,0.747237,-8.830584,-0.158708,0.880065,0.598517,0.001188,-0.000033,0.182555,-0.000952,-0.000005,-0.780033,0.000687,-0.000023,14.980053,0.258483,0.966016,-0.184030,0.004582,12.948550,0.224076,0.974572,-0.021941,-0.006165,74.176041,0.962104,0.272683,-0.318176,0.016396
2000.000000,2000.000000,0.315918,-0.993164,-0.116211,2000.000000,-8.729935,10.002136,22.533417,2000.000000,77.699966,23.249954,-100.650009,14.809726,12.923886,73.872383,0.298486,-0.001674,0.000717,-0.946384,-0.000283,0.000142,-0.123547,-0.001902,0.000744,-1.334223,0.163655,-0.455678,6.890788,1.749322,-0.375213,-9.759787,-0.929203,-0.770495,0.599586,0.001069,-0.000119,0.181737,-0.000818,0.000134,-0.779402,0.000630,-0.000057,14.809726,0.255610,0.966780,-0.170327,0.013702,12.923886,0.223656,0.974668,-0.024664,-0.002723,73.872383,0.960645,0.277778,-0.303658,0.014519
2010.000000,2010.000000,0.304199,-0.990234,-0.115723,2010.000000,-7.875443,11.405945,22.106171,2010.000000,79.049957,21.149963,-100.500000,14.645579,12.892618,73.586624,0.297277,-0.001209,0.000465,-0.946620,-0.000236,0.000047,-0.124651,-0.001103,0.000799,-0.887527,0.446696,0.283041,8.815633,1.924845,0.175523,-9.814130,-0.054343,0.874860,0.600589,0.001003,-0.000066,0.180725,-0.001012,-0.000194,-0.778865,0.000537,-0.000093,14.645579,0.252839,0.967508,-0.164146,0.006181,12.892618,0.223125,0.974790,-0.031268,-0.006604,73.586624,0.959248,0.282565,-0.285759,0.017899
2020.000000,2020.000000,0.313476,-0.987793,-0.112793,2020.000000,-7.631302,12.809753,21.556854,2020.000000,79.049957,23.999954,-99.150009,14.488963,12.860034,73.317986,0.296323,-0.000954,0.000255,-0.946864,-0.000245,-0.000009,-0.125061,-0.000411,0.000693,-1.059285,-0.171758,-0.618454,10.543507,1.727874,-0.196971,-9.943532,-0.129402,-0.075059,0.601864,0.001275,0.000271,0.179460,-0.001265,-0.000253,-0.778174,0.000692,0.000154,14.488963,0.250194,0.968196,-0.156616,0.007530,12.860034,0.222570,0.974917,-0.032584,-0.001316,73.317986,0.957913,0.287060,-0.268639,0.017120
2030.000000,2030.000000,0.310059,-0.984863,-0.122559,2030.000000,-7.631302,15.068054,21.007538,2030.000000,78.749954,23.999954,-99.150009,14.340028,12.827946,73.074203,0.295638,-0.000686,0.000268,-0.947092,-0.000228,0.000017,-0.124960,0.000101,0.000512,-1.445968,-0.386683,-0.214925,12.901988,2.358481,0.630608,-10.024358,-0.080826,0.048576,0.603460,0.001596,0.000322,0.178718,-0.000742,0.000523,-0.777107,0.001066,0.000374,14.340028,0.247676,0.968843,-0.148935,0.007681,12.827946,0.222024,0.975041,-0.032088,0.000496,73.074203,0.956683,0.291133,-0.243782,0.024857
2040.000000,2040.000000,0.291016,-0.971679,-0.125000,2040.000000,-7.875443,16.654968,20.275116,2040.000000,78.749954,22.649963,-100.050003,14.200592,12.798463,72.848328,0.295106,-0.000531,0.000155,-0.947302,-0.000210,0.000018,-0.124628,0.000333,0.000232,-2.027840,-0.581872,-0.195190,14.368977,1.466989,-0.891493,-10.235579,-0.211222,-0.130396,0.605083,0.001623,0.000026,0.178616,-0.000102,0.000640,-0.775868,0.001239,0.000173,14.200592,0.245317,0.969443,-0.139436,0.009500,12.798463,0.221522,0.975155,-0.029483,0.002605,72.848328,0.955527,0.294902,-0.225876,0.017906
2050.000000,2050.000000,0.279785,-0.970215,-0.128418,2050.000000,-8.607864,16.960144,19.481659,2050.000000,78.749954,21.599960,-101.100006,14.070869,12.776314,72.627792,0.294415,-0.000691,-0.000160,-0.947560,-0.000259,-0.000049,-0.124297,0.000331,-0.000002,-3.019639,-0.991799,-0.409926,14.430901,0.061924,-1.405065,-10.448548,-0.212969,-0.001747,0.606417,0.001334,-0.000288,0.178312,-0.000303,-0.000201,-0.774895,0.000973,-0.000266,14.070869,0.243122,0.969996,-0.129723,0.009713,12.776314,0.221145,0.975241,-0.022149,0.007334,72.627792,0.954385,0.298578,-0.220535,0.005341
2060.000000,2060.000000,0.265625,-0.954590,-0.139648,2060.000000,-9.340286,16.899109,17.772675,2060.000000,79.349960,21.599960,-101.100006,13.959141,12.761576,72.409309,0.293304,-0.001111,-0.000419,-0.947922,-0.000362,-0.000103,-0.124168,0.000129,-0.000202,-3.915700,-0.896061,0.095737,14.082732,-0.348168,-0.410092,-11.479668,-1.031119,-0.818151,0.607357,0.000940,-0.000395,0.177312,-0.001001,-0.000698,-0.774389,0.000507,-0.000466,13.959141,0.241230,0.970468,-0.111729,0.017994,12.761576,0.220894,0.975298,-0.014738,0.007411,72.409309,0.953240,0.302215,-0.218483,0.002052
2070.000000,2070.000000,0.250488,-0.970703,-0.146484,2070.000000,-8.729935,16.105652,17.711639,2070.000000,79.649963,21.749954,-98.850006,13.848143,12.741426,72.185684,0.291554,-0.001750,-0.000639,-0.948422,-0.000501,-0.000139,-0.124466,-0.000298,-0.000427,-3.436357,0.479343,1.375404,13.010358,-1.072374,-0.724206,-10.803403,0.676265,1.707384,0.608216,0.000859,-0.000081,0.175810,-0.001502,-0.000501,-0.774057,0.000332,-0.000174,13.848143,0.239349,0.970933,-0.110998,0.000731,12.741426,0.220551,0.975375,-0.020149,-0.005411,72.185684,0.952053,0.305933,-0.223625,-0.005142
2080.000000,2080.000000,0.235840,-0.980469,-0.144043,2080.000000,-7.753372,13.908386,18.077850,2080.000000,79.949966,23.249954,-100.200012,13.732595,12.712923,71.942993,0.288892,-0.002662,-0.000911,-0.949134,-0.000712,-0.000211,-0.125244,-0.000778,-0.000480,-2.634488,0.801869,0.322526,10.637195,-2.373163,-1.300789,-9.735135,1.068268,0.392003,0.609300,0.001084,0.000225,0.174421,-0.001389,0.000112,-0.773518,0.000538,0.000206,13.732595,0.237391,0.971414,-0.115547,-0.004549,12.712923,0.220066,0.975485,-0.028503,-0.008354,71.942993,0.950749,0.309963,-0.242691,-0.019066
2090.000000,2090.000000,0.225586,-0.978027,-0.151367,2090.000000,-7.814407,12.382507,18.383026,2090.000000,79.949966,21.149963,-100.050003,13.611906,12.686836,71.688118,0.285151,-0.003741,-0.001080,-0.950108,-0.000974,-0.000262,-0.126426,-0.001182,-0.000403,-2.883349,-0.248861,-1.050730,9.067822,-1.569372,0.803791,-8.779291,0.955844,-0.112424,0.610488,0.001188,0.000104,0.173352,-0.001069,0.000321,-0.772821,0.000697,0.000159,13.611906,0.235344,0.971912,-0.120689,-0.005142,12.686836,0.219622,0.975585,-0.026087,0.002417,71.688118,0.949360,0.314189,-0.254875,-0.012184
2100.000000,2100.000000,0.232910,-0.975586,-0.166016,2100.000000,-7.265091,10.307312,18.993378,2100.000000,79.499954,21.149963,-100.050003,13.482083,12.657671,71.415993,0.280473,-0.004679,-0.000937,-0.951277,-0.001169,-0.000195,-0.128088,-0.001662,-0.000480,-2.516327,0.367021,0.615882,7.072175,-1.995647,-0.426275,-7.579628,1.199663,0.243819,0.611600,0.001112,-0.000077,0.172150,-0.001203,-0.000134,-0.772211,0.000611,-0.000087,13.482083,0.233141,0.972443,-0.129823,-0.009133,12.657671,0.219125,0.975697,-0.029165,-0.003078,71.415993,0.947857,0.318695,-0.272125,-0.017250
2110.000000,2110.000000,0.248535,-0.979004,-0.150879,2110.000000,-7.020950,9.941101,19.542694,2110.000000,80.549957,22.349960,-99.300003,13.343392,12.629033,71.143723,0.275343,-0.005130,-0.000451,-0.952485,-0.001207,-0.000038,-0.130229,-0.002141,-0.000479,-2.462917,0.053410,-0.313611,6.854199,-0.217976,1.777671,-6.511707,1.067921,-0.131742,0.612668,0.001068,-0.000044,0.170839,-0.001311,-0.000108,-0.771656,0.000555,-0.000055,13.343392,0.230787,0.973004,-0.138691,-0.008868,12.629033,0.218638,0.975806,-0.028638,0.000527,71.143723,0.946332,0.323195,-0.272270,-0.000145
