icmT,accT,accX,accY,accZ,gyrT,gyrX,gyrY,gyrZ,magT,magX,magY,magZ,roll,pitch,yaw,accX_,accX_1,accX_2,accY_,accY_1,accY_2,accZ_,accZ_1,accZ_2,gyrX_,gyrX_1,gyrX_2,gyrY_,gyrY_1,gyrY_2,gyrZ_,gyrZ_1,gyrZ_2,magX_,magX_1,magX_2,magY_,magY_1,magY_2,magZ_,magZ_1,magZ_2,roll_,roll_s,roll_c,roll_1,roll_2,pitch_,pitch_s,pitch_c,pitch_1,pitch_2,yaw_,yaw_s,yaw_c,yaw_1,yaw_2
0.000000,0.000000,0.215820,-1.015625,0.011230,0.000000,0.909805,-0.186920,-0.045776,0.000000,58.349960,15.599960,-116.700012,0.000000,0.000000,0.000000,0.000000,0.000000,0.000000,0.000000,0.000000,0.000000,0.000000,0.000000,0.000000,0.000000,0.000000,0.000000,0.000000,0.000000,0.000000,0.000000,0.000000,0.000000,0.000000,0.000000,0.000000,0.000000,0.000000,0.000000,0.000000,0.000000,0.000000,0.000000,0.000000,0.000000,0.000000,0.000000,0.000000,0.000000,0.000000,0.000000,0.000000,0.000000,0.000000,0.000000,0.000000,0.000000
10.000000,10.000000,0.214844,-1.013183,0.012207,10.000000,1.337051,-0.858307,0.255585,10.000000,58.799957,15.599960,-116.700012,0.000000,0.000000,0.000000,0.000000,0.000000,0.000000,0.000000,0.000000,0.000000,0.000000,0.000000,0.000000,0.000000,0.000000,0.000000,0.000000,0.000000,0.000000,0.000000,0.000000,0.000000,0.000000,0.000000,0.000000,0.000000,0.000000,0.000000,0.000000,0.000000,0.000000,0.000000,0.000000,0.000000,0.000000,0.000000,0.000000,0.000000,0.000000,0.000000,0.000000,0.000000,0.000000,0.000000,0.000000,0.000000
20.000000,20.000000,0.210937,-1.019043,0.014648,20.000000,0.848770,-0.064850,0.621796,20.000000,56.099960,15.149963,-114.900009,-3.606093,3.591682,1.278863,0.000000,0.000000,0.000000,0.000000,0.000000,0.000000,0.000000,0.000000,0.000000,0.811885,0.811885,0.811885,-0.062032,-0.062032,-0.062032,0.594774,0.594774,0.594774,0.435699,0.435699,0.435699,0.117662,0.117662,0.117662,-0.892369,-0.892369,-0.892369,-3.606093,-0.062897,0.998020,-3.606093,-3.606093,3.591682,0.062646,0.998036,3.591682,3.591682,1.278863,0.022319,0.999751,1.278863,1.278863
30.000000,30.000000,0.205078,-1.010742,0.039062,30.000000,0.726700,-0.308990,0.499725,30.000000,56.099960,14.999954,-117.900009,-7.138869,7.112727,2.532076,0.000000,0.000000,0.000000,0.000000,0.000000,0.000000,0.000000,0.000000,0.000000,0.623022,-0.188863,-1.000749,-0.290054,-0.228022,-0.165991,0.425191,-0.169583,-0.764358,0.433734,-0.001965,-0.437665,0.116877,-0.000785,-0.118447,-0.893429,-0.001060,0.891309,-7.138869,-0.124275,0.992248,-3.532775,0.073318,7.112727,0.123822,0.992304,3.521045,-0.070637,2.532076,0.044179,0.999024,1.253213,-0.025651
40.000000,40.000000,0.213379,-1.028808,0.015625,40.000000,0.848770,0.236511,0.438690,40.000000,56.699966,14.999954,-117.900009,-10.600390,10.562154,3.774518,0.000000,0.000000,0.000000,0.000000,0.000000,0.000000,0.000000,0.000000,0.000000,0.681393,0.058371,0.247235,0.257734,0.547788,0.775810,0.326803,-0.098388,0.071195,0.432171,-0.001563,0.000402,0.116088,-0.000789,-0.000004,-0.894289,-0.000860,0.000200,-10.600390,-0.183958,0.982934,-3.461522,0.071254,10.562154,0.183302,0.983057,3.449427,-0.071618,3.774518,0.065830,0.997831,1.242442,-0.010771
50.000000,50.000000,0.213379,-1.027832,0.029297,50.000000,1.092911,0.114441,0.682831,50.000000,56.549957,15.449966,-116.250000,-10.162544,10.313593,5.005433,0.201479,0.201479,0.201479,-0.979229,-0.979229,-0.979229,0.022741,0.022741,0.022741,0.848993,0.167599,0.109228,0.119411,-0.138323,-0.686111,0.527458,0.200656,0.299044,0.431544,-0.000626,0.000937,0.115739,-0.000349,0.000440,-0.894636,-0.000348,0.000512,-10.162544,-0.176441,0.984311,0.437846,3.899368,10.313593,0.179036,0.983843,-0.248561,-3.697988,5.005433,0.087250,0.996186,1.230915,-0.011527
60.000000,60.000000,0.218262,-1.041015,0.021484,60.000000,0.665665,-0.186920,1.293182,60.000000,55.649963,16.649963,-118.200012,-9.739080,10.073895,6.207526,0.201782,0.000303,-0.201177,-0.979161,0.000068,0.979297,0.022992,0.000251,-0.022489,0.356923,-0.492069,-0.659669,-0.179101,-0.298512,-0.160190,1.059357,0.531899,0.331243,0.431193,-0.000351,0.000275,0.116247,0.000509,0.000857,-0.894740,-0.000103,0.000244,-9.739080,-0.169162,0.985588,0.423464,-0.014382,10.073895,0.174918,0.984583,-0.239698,0.008862,6.207526,0.108130,0.994137,1.202093,-0.028822
70.000000,70.000000,0.222656,-1.031738,0.027344,70.000000,1.337051,0.785828,0.865936,70.000000,55.649963,16.499954,-117.300003,-9.319267,9.832235,7.394376,0.202321,0.000539,0.000237,-0.979046,0.000115,0.000046,0.023139,0.000147,-0.000104,0.956233,0.599309,1.091379,0.767184,0.946285,1.244798,0.549522,-0.509836,-1.041734,0.430417,-0.000776,-0.000425,0.117486,0.001238,0.000730,-0.894951,-0.000212,-0.000109,-9.319267,-0.161936,0.986801,0.419813,-0.003651,9.832235,0.170764,0.985312,-0.241659,-0.001961,7.394376,0.128698,0.991684,1.186850,-0.015243
80.000000,80.000000,0.212891,-1.027344,0.025879,80.000000,1.214981,0.053406,0.377655,80.000000,57.299957,16.499954,-117.300003,-8.902319,9.596434,8.549545,0.202958,0.000637,0.000098,-0.978911,0.000135,0.000021,0.023283,0.000144,-0.000003,0.741997,-0.214236,-0.813545,-0.000955,-0.768139,-1.714425,0.022575,-0.526947,-0.017111,0.429728,-0.000690,0.000086,0.118943,0.001457,0.000219,-0.895090,-0.000139,0.000073,-8.902319,-0.154750,0.987954,0.416948,-0.002865,9.596434,0.166707,0.986006,-0.235802,0.005857,8.549545,0.148665,0.988888,1.155169,-0.031681
90.000000,90.000000,0.229004,-1.027344,0.014160,90.000000,1.764297,-0.370026,0.926971,90.000000,57.299957,14.849960,-117.450012,-8.498302,9.359960,9.676011,0.203633,0.000675,0.000038,-0.978770,0.000140,0.000005,0.023284,0.000001,-0.000143,1.185383,0.443386,0.657622,-0.408218,-0.407263,0.360877,0.532853,0.510278,1.037225,0.429711,-0.000017,0.000673,0.119980,0.001037,-0.000420,-0.894960,0.000130,0.000270,-8.498302,-0.147780,0.989020,0.404016,-0.012932,9.359960,0.162636,0.986686,-0.236474,-0.000672,9.676011,0.168077,0.985774,1.126466,-0.028703
100.000000,100.000000,0.219238,-1.015625,0.033203,100.000000,2.985001,-0.003815,0.560760,100.000000,57.299957,14.849960,-115.950012,-8.097796,9.116404,10.781470,0.204471,0.000838,0.000163,-0.978599,0.000172,0.000031,0.023151,-0.000133,-0.000134,2.228802,1.043419,0.600033,-0.023983,0.384234,0.791497,0.121991,-0.410863,-0.921141,0.430326,0.000615,0.000632,0.120197,0.000217,-0.000820,-0.894635,0.000325,0.000194,-8.097796,-0.140863,0.990029,0.400506,-0.003510,9.116404,0.158441,0.987368,-0.243556,-0.007082,10.781470,0.187064,0.982348,1.105459,-0.021007
110.000000,110.000000,0.209961,-1.021484,0.037109,110.000000,1.642227,-1.041412,1.598358,110.000000,57.449966,14.849960,-115.950012,-7.714576,8.890680,11.852214,0.205233,0.000761,-0.000077,-0.978435,0.000163,-0.000008,0.023315,0.000165,0.000298,0.723006,-1.505795,-2.549214,-1.015131,-0.991148,-1.375382,1.088404,0.966413,1.377276,0.431411,0.001085,0.000471,0.119782,-0.000414,-0.000631,-0.894168,0.000467,0.000143,-7.714576,-0.134238,0.990949,0.383220,-0.017286,8.890680,0.154550,0.987985,-0.225723,0.017833,11.852214,0.205388,0.978681,1.070744,-0.034716
120.000000,120.000000,0.217773,-1.022949,0.008789,120.000000,1.337051,-0.675201,0.988007,120.000000,56.699966,15.749954,-116.850006,-7.332483,8.672111,12.902604,0.205706,0.000473,-0.000288,-0.978329,0.000107,-0.000057,0.023613,0.000298,0.000133,0.335015,-0.387991,1.117804,-0.575368,0.439763,1.430911,0.392201,-0.696203,-1.662616,0.432643,0.001232,0.000147,0.119209,-0.000573,-0.000159,-0.893649,0.000519,0.000051,-7.332483,-0.127627,0.991822,0.382093,-0.001127,8.672111,0.150780,0.988567,-0.218570,0.007154,12.902604,0.223294,0.974751,1.050390,-0.020353
130.000000,130.000000,0.206055,-1.019043,0.008301,130.000000,1.764297,-0.614166,0.621796,130.000000,56.699966,15.749954,-116.550003,-6.954171,8.453901,13.930431,0.205939,0.000233,-0.000240,-0.978283,0.000045,-0.000061,0.023462,-0.000151,-0.000449,0.679339,0.344324,0.732316,-0.462735,0.112633,-0.327130,-0.012759,-0.404960,0.291243,0.433610,0.000967,-0.000265,0.118836,-0.000373,0.000200,-0.893230,0.000419,-0.000100,-6.954171,-0.121075,0.992643,0.378312,-0.003781,8.453901,0.147014,0.989134,-0.218209,0.000360,13.930431,0.240744,0.970589,1.027827,-0.022563
140.000000,140.000000,0.210449,-1.026855,0.014648,140.000000,0.909805,-0.858307,0.621796,140.000000,56.399963,15.749954,-116.550003,-6.583449,8.249156,14.933690,0.205922,-0.000017,-0.000251,-0.978302,-0.000018,-0.000064,0.022843,-0.000620,-0.000468,-0.234217,-0.913557,-1.257881,-0.649844,-0.187109,-0.299742,-0.032942,-0.020184,0.384776,0.434206,0.000596,-0.000372,0.118741,-0.000095,0.000278,-0.892953,0.000277,-0.000142,-6.583449,-0.114650,0.993406,0.370722,-0.007590,8.249156,0.143478,0.989654,-0.204745,0.013464,14.933690,0.257701,0.966225,1.003259,-0.024569
150.000000,150.000000,0.210937,-1.019531,0.011230,150.000000,-0.429153,-0.614166,1.171112,150.000000,56.699966,16.199966,-115.050003,-6.225765,8.062585,15.917991,0.205721,-0.000201,-0.000184,-0.978363,-0.000061,-0.000043,0.022026,-0.000817,-0.000197,-1.532627,-1.298410,-0.384854,-0.351526,0.298318,0.485426,0.474160,0.507102,0.527285,0.434597,0.000391,-0.000205,0.118920,0.000179,0.000273,-0.892739,0.000214,-0.000063,-6.225765,-0.108446,0.994102,0.357684,-0.013038,8.062585,0.140255,0.990115,-0.186571,0.018174,15.917991,0.274261,0.961655,0.984301,-0.018958
160.000000,160.000000,0.223633,-1.019531,0.014160,160.000000,0.177383,-0.614166,0.988007,160.000000,56.699966,14.999954,-116.550003,-5.873635,7.874854,16.881405,0.205558,-0.000163,0.000039,-0.978417,-0.000054,0.000007,0.021127,-0.000898,-0.000082,-0.853899,0.678728,1.977138,-0.310776,0.040751,-0.257567,0.235761,-0.238399,-0.745501,0.434956,0.000359,-0.000032,0.119237,0.000317,0.000138,-0.892522,0.000217,0.000003,-5.873635,-0.102335,0.994750,0.352130,-0.005554,7.874854,0.137010,0.990570,-0.187731,-0.001160,16.881405,0.290392,0.956908,0.963414,-0.020886
170.000000,170.000000,0.225586,-1.028808,0.015137,170.000000,0.482559,-0.858307,1.476288,170.000000,56.999954,14.999954,-116.550003,-5.533250,7.688942,17.822107,0.205633,0.000075,0.000237,-0.978420,-0.000003,0.000050,0.020227,-0.000901,-0.000002,-0.517918,0.335982,-0.342746,-0.505846,-0.195071,-0.235822,0.658951,0.423190,0.661589,0.435270,0.000314,-0.000045,0.119307,0.000071,-0.000246,-0.892360,0.000163,-0.000054,-5.533250,-0.096423,0.995340,0.340385,-0.011745,7.688942,0.133795,0.991009,-0.185912,0.001819,17.822107,0.306063,0.952011,0.940702,-0.022712
180.000000,180.000000,0.235840,-1.026367,0.029785,180.000000,1.214981,-0.858307,0.865936,180.000000,56.999954,15.149963,-116.400009,-5.193218,7.500424,18.743090,0.206040,0.000407,0.000332,-0.978349,0.000071,0.000074,0.019496,-0.000731,0.000170,0.200133,0.718051,0.382070,-0.448889,0.056958,0.252028,-0.007220,-0.666171,-1.089361,0.435535,0.000265,-0.000049,0.119034,-0.000274,-0.000344,-0.892267,0.000093,-0.000070,-5.193218,-0.090515,0.995895,0.340032,-0.000353,7.500424,0.130534,0.991444,-0.188518,-0.002605,18.743090,0.321325,0.946969,0.920982,-0.019720
190.000000,190.000000,0.230469,-1.026855,0.026367,190.000000,0.665665,-1.285553,0.011444,190.000000,56.699966,16.349960,-118.200012,-4.850743,7.321515,19.640814,0.206784,0.000744,0.000337,-0.978200,0.000149,0.000078,0.019104,-0.000391,0.000340,-0.369661,-0.569795,-1.287846,-0.803757,-0.354868,-0.411826,-0.850254,-0.843034,-0.176863,0.435650,0.000114,-0.000151,0.118753,-0.000280,-0.000007,-0.892248,0.000019,-0.000074,-4.850743,-0.084560,0.996418,0.342475,0.002443,7.321515,0.127437,0.991847,-0.178909,0.009608,19.640814,0.336123,0.941818,0.897724,-0.023258
200.000000,200.000000,0.202637,-1.020019,0.020996,200.000000,1.703262,-1.285553,0.133514,200.000000,58.049957,15.749954,-116.850006,-4.515402,7.136149,20.520144,0.207562,0.000778,0.000034,-0.978038,0.000163,0.000013,0.018988,-0.000117,0.000274,0.628339,0.998000,1.567795,-0.716737,0.087021,0.441889,-0.684272,0.165981,1.009015,0.435610,-0.000039,-0.000154,0.118740,-0.000013,0.000267,-0.892269,-0.000021,-0.000040,-4.515402,-0.078727,0.996896,0.335340,-0.007134,7.136149,0.124228,0.992254,-0.185366,-0.006457,20.520144,0.350537,0.936549,0.879330,-0.018394
210.000000,210.000000,0.204590,-1.018554,0.019531,210.000000,0.848770,-1.041412,-0.167847,210.000000,56.549957,16.649963,-117.450012,-4.183354,6.962890,21.383850,0.207955,0.000393,-0.000385,-0.977954,0.000083,-0.000079,0.018964,-0.000024,0.000093,-0.270755,-0.899094,-1.897094,-0.400876,0.315861,0.228841,-0.934848,-0.250576,-0.416557,0.435595,-0.000016,0.000024,0.119034,0.000294,0.000307,-0.892238,0.000031,0.000052,-4.183354,-0.072948,0.997336,0.332048,-0.003293,6.962890,0.121226,0.992625,-0.173259,0.012107,21.383850,0.364614,0.931159,0.863707,-0.015623
220.000000,220.000000,0.210937,-1.017578,0.011719,220.000000,1.337051,-1.346588,0.072479,220.000000,56.549957,15.149963,-116.700012,-3.860310,6.788392,22.227064,0.207949,-0.000006,-0.000400,-0.977957,-0.000003,-0.000086,0.018895,-0.000069,-0.000045,0.192040,0.462795,1.361889,-0.635800,-0.234925,-0.550786,-0.642439,0.292409,0.542985,0.435448,-0.000147,-0.000131,0.119487,0.000453,0.000159,-0.892249,-0.000011,-0.000042,-3.860310,-0.067324,0.997731,0.323044,-0.009004,6.788392,0.118203,0.992989,-0.174498,-0.001239,22.227064,0.378278,0.925692,0.843214,-0.020493
230.000000,230.000000,0.203125,-1.012207,0.009766,230.000000,1.581192,-1.163483,0.621796,230.000000,56.699966,15.149963,-116.700012,-3.549397,6.615270,23.055269,0.207705,-0.000244,-0.000238,-0.978014,-0.000056,-0.000054,0.018658,-0.000237,-0.000168,0.381230,0.189189,-0.273605,-0.381286,0.254514,0.489439,-0.076902,0.565537,0.273129,0.435131,-0.000317,-0.000170,0.119717,0.000230,-0.000223,-0.892372,-0.000124,-0.000113,-3.549397,-0.061909,0.998082,0.310913,-0.012132,6.615270,0.115202,0.993342,-0.173122,0.001376,23.055269,0.391619,0.920128,0.828205,-0.015009
240.000000,240.000000,0.210937,-1.019531,0.007324,240.000000,1.337051,-1.346588,1.415253,240.000000,57.449966,15.749954,-117.600006,-3.252975,6.448542,23.865196,0.207284,-0.000421,-0.000177,-0.978112,-0.000098,-0.000042,0.018200,-0.000458,-0.000221,0.085831,-0.295399,-0.484588,-0.497267,-0.115981,-0.370496,0.674373,0.751275,0.185737,0.434858,-0.000273,0.000043,0.119638,-0.000079,-0.000309,-0.892516,-0.000144,-0.000020,-3.252975,-0.056745,0.998389,0.296423,-0.014490,6.448542,0.112311,0.993673,-0.166728,0.006393,23.865196,0.404586,0.914500,0.809927,-0.018278
250.000000,250.000000,0.209473,-1.014160,0.024414,250.000000,1.703262,-2.079010,2.025604,250.000000,57.449966,14.699966,-116.550003,-2.969058,6.282196,24.651613,0.206777,-0.000507,-0.000086,-0.978229,-0.000117,-0.000019,0.017659,-0.000542,-0.000084,0.399051,0.313220,0.608619,-1.126953,-0.629686,-0.513705,1.184074,0.509702,-0.241573,0.434794,-0.000064,0.000209,0.119363,-0.000275,-0.000196,-0.892585,-0.000068,0.000075,-2.969058,-0.051797,0.998658,0.283917,-0.012506,6.282196,0.109425,0.993995,-0.166346,0.000382,24.651613,0.417100,0.908861,0.786417,-0.023510
260.000000,260.000000,0.219727,-1.018066,0.019531,260.000000,1.092911,-1.346588,1.537323,260.000000,55.799957,14.699966,-116.550003,-2.686571,6.125627,25.429268,0.206320,-0.000457,0.000050,-0.978332,-0.000104,0.000014,0.017260,-0.000399,0.000143,-0.249992,-0.649043,-0.962263,-0.297656,0.829297,1.458983,0.595075,-0.589000,-1.098701,0.434841,0.000047,0.000111,0.118783,-0.000579,-0.000304,-0.892639,-0.000054,0.000014,-2.686571,-0.046872,0.998901,0.282487,-0.001430,6.125627,0.106709,0.994290,-0.156569,0.009778,25.429268,0.429397,0.903116,0.777655,-0.008762
270.000000,270.000000,0.217285,-1.015625,0.011230,270.000000,1.153946,-1.468658,1.476288,270.000000,56.699966,16.649963,-117.750000,-2.409478,5.971927,26.190308,0.206029,-0.000291,0.000166,-0.978399,-0.000066,0.000037,0.016974,-0.000285,0.000113,-0.200696,0.049296,0.698339,-0.355103,-0.057447,-0.886744,0.462585,-0.132490,0.456510,0.434641,-0.000200,-0.000247,0.118207,-0.000576,0.000003,-0.892813,-0.000174,-0.000119,-2.409478,-0.042041,0.999116,0.277093,-0.005394,5.971927,0.104041,0.994573,-0.153700,0.002869,26.190308,0.441354,0.897333,0.761040,-0.016615
280.000000,280.000000,0.211426,-1.023926,0.011719,280.000000,1.276016,-1.407623,1.232147,280.000000,56.699966,16.499954,-117.300003,-2.135733,5.820507,26.937201,0.205860,-0.000169,0.000122,-0.978440,-0.000041,0.000025,0.016632,-0.000343,-0.000057,-0.096450,0.104246,0.054950,-0.231175,0.123928,0.181375,0.164464,-0.298121,-0.165631,0.434171,-0.000470,-0.000270,0.118215,0.000007,0.000584,-0.893040,-0.000228,-0.000054,-2.135733,-0.037267,0.999305,0.273745,-0.003348,5.820507,0.101412,0.994844,-0.151420,0.002280,26.937201,0.453014,0.891504,0.746893,-0.014147
290.000000,290.000000,0.225586,-1.009765,0.025391,290.000000,1.276016,-1.163483,1.293182,290.000000,54.899963,16.499954,-117.300003,-1.868143,5.672503,27.672377,0.205791,-0.000069,0.000099,-0.978460,-0.000020,0.000021,0.016301,-0.000331,0.000012,-0.117468,-0.021018,-0.125264,0.058237,0.289413,0.165485,0.182983,0.018519,0.316640,0.433423,-0.000748,-0.000278,0.118848,0.000634,0.000626,-0.893319,-0.000279,-0.000052,-1.868143,-0.032599,0.999469,0.267590,-0.006155,5.672503,0.098842,0.995103,-0.148004,0.003416,27.672377,0.464415,0.885618,0.735176,-0.011717
300.000000,300.000000,0.218262,-1.010742,0.009766,300.000000,1.276016,-1.651764,1.537323,300.000000,57.299957,15.449966,-116.850006,-1.608132,5.527718,28.389181,0.205934,0.000143,0.000212,-0.978434,0.000026,0.000047,0.016079,-0.000222,0.000109,-0.136255,-0.018787,0.002231,-0.377770,-0.436008,-0.725420,0.374384,0.191401,0.172882,0.432470,-0.000953,-0.000205,0.119675,0.000827,0.000193,-0.893671,-0.000352,-0.000072,-1.608132,-0.028064,0.999606,0.260012,-0.007578,5.527718,0.096327,0.995350,-0.144785,0.003219,28.389181,0.475458,0.879738,0.716805,-0.018372
310.000000,310.000000,0.215332,-1.012207,0.019531,310.000000,1.092911,-0.858307,1.720428,310.000000,57.299957,16.349960,-117.450012,-1.354770,5.387841,29.100142,0.206229,0.000295,0.000152,-0.978375,0.000059,0.000033,0.015893,-0.000187,0.000035,-0.328079,-0.191823,-0.173036,0.450759,0.828529,1.264537,0.489714,0.115330,-0.076071,0.431863,-0.000607,0.000347,0.120358,0.000683,-0.000143,-0.893873,-0.000202,0.000150,-1.354770,-0.023643,0.999720,0.253362,-0.006650,5.387841,0.093897,0.995582,-0.139877,0.004908,29.100142,0.486338,0.873771,0.710960,-0.005844
320.000000,320.000000,0.206543,-1.014648,0.008301,320.000000,0.848770,-0.858307,2.208710,320.000000,57.149963,16.349960,-117.450012,-1.110979,5.253396,29.796993,0.206470,0.000241,-0.000054,-0.978327,0.000047,-0.000012,0.015685,-0.000208,-0.000021,-0.560736,-0.232657,-0.040833,0.448163,-0.002595,-0.831124,0.885301,0.395587,0.280257,0.431758,-0.000105,0.000502,0.120977,0.000619,-0.000064,-0.893840,0.000033,0.000234,-1.110979,-0.019389,0.999812,0.243791,-0.009571,5.253396,0.091561,0.995799,-0.134445,0.005433,29.796993,0.496928,0.867792,0.696852,-0.014109
330.000000,330.000000,0.194824,-1.025390,0.021484,330.000000,1.092911,-1.041412,3.307343,330.000000,56.549957,16.499954,-117.600006,-0.882903,5.119500,30.478033,0.206409,-0.000061,-0.000302,-0.978344,-0.000016,-0.000064,0.015469,-0.000216,-0.000008,-0.304430,0.256306,0.488962,0.268947,-0.179216,-0.176621,1.827737,0.942435,0.546848,0.431818,0.000060,0.000165,0.121658,0.000681,0.000062,-0.893718,0.000122,0.000089,-0.882903,-0.015409,0.999881,0.228076,-0.015715,5.119500,0.089233,0.996011,-0.133896,0.000549,30.478033,0.507208,0.861824,0.681040,-0.015812
340.000000,340.000000,0.209961,-1.008789,0.024414,340.000000,1.398087,-0.858307,3.673553,340.000000,56.549957,14.399963,-117.000000,-0.663476,4.985389,31.147243,0.205983,-0.000426,-0.000365,-0.978435,-0.000091,-0.000075,0.015388,-0.000082,0.000134,-0.010384,0.294047,0.037741,0.454249,0.185302,0.364518,1.982542,0.154806,-0.787630,0.431843,0.000025,-0.000035,0.122067,0.000410,-0.000271,-0.893650,0.000068,-0.000054,-0.663476,-0.011580,0.999933,0.219427,-0.008649,4.985389,0.086902,0.996217,-0.134111,-0.000216,31.147243,0.517239,0.855841,0.669210,-0.011829
350.000000,350.000000,0.210449,-1.026855,0.039551,350.000000,0.543594,-0.675201,3.368378,350.000000,56.699966,14.399963,-117.000000,-0.446095,4.862010,31.804901,0.205429,-0.000554,-0.000129,-0.978547,-0.000112,-0.000021,0.015666,0.000278,0.000360,-0.850571,-0.840188,-1.134234,0.622079,0.167830,-0.017472,1.474484,-0.508059,-0.662864,0.431882,0.000039,0.000014,0.121681,-0.000387,-0.000796,-0.893684,-0.000034,-0.000102,-0.446095,-0.007786,0.999970,0.217381,-0.002046,4.862010,0.084756,0.996402,-0.123378,0.010733,31.804901,0.527029,0.849848,0.657658,-0.011553
360.000000,360.000000,0.216309,-1.033691,0.024902,360.000000,0.848770,-1.224518,4.100800,360.000000,57.899963,16.199966,-116.550003,-0.240846,4.737312,32.443760,0.204909,-0.000520,0.000034,-0.978645,-0.000098,0.000014,0.016348,0.000683,0.000404,-0.506836,0.343735,1.183923,0.072695,-0.549383,-0.717213,1.996558,0.522074,1.030133,0.432178,0.000296,0.000257,0.120775,-0.000906,-0.000519,-0.893664,0.000020,0.000054,-0.240846,-0.004204,0.999991,0.205249,-0.012132,4.737312,0.082588,0.996584,-0.124699,-0.001320,32.443760,0.536471,0.843918,0.638859,-0.018799
370.000000,370.000000,0.226074,-1.023926,0.041504,370.000000,0.543594,-0.858307,3.124237,370.000000,57.299957,16.199966,-118.350006,-0.030541,4.616942,33.072792,0.204556,-0.000353,0.000167,-0.978701,-0.000057,0.000041,0.017337,0.000988,0.000306,-0.774239,-0.267403,-0.611138,0.445490,0.372794,0.922178,0.831981,-1.164577,-1.686651,0.432775,0.000597,0.000301,0.120121,-0.000654,0.000252,-0.893463,0.000201,0.000181,-0.030541,-0.000533,1.000000,0.210305,0.005056,4.616942,0.080494,0.996755,-0.120370,0.004329,33.072792,0.545704,0.837978,0.629032,-0.009827
380.000000,380.000000,0.208496,-1.024902,0.039062,380.000000,1.214981,-1.346588,3.002167,380.000000,57.299957,15.149963,-118.200012,0.176597,4.490862,33.683876,0.204416,-0.000140,0.000213,-0.978706,-0.000005,0.000052,0.018651,0.001314,0.000326,-0.081857,0.692383,0.959786,-0.032455,-0.477944,-0.850739,0.580636,-0.251345,0.913232,0.433334,0.000559,-0.000039,0.119746,-0.000375,0.000279,-0.893243,0.000220,0.000019,0.176597,0.003082,0.999995,0.207137,-0.003168,4.490862,0.078300,0.996930,-0.126080,-0.005710,33.683876,0.554610,0.832110,0.611084,-0.017948
390.000000,390.000000,0.212891,-1.024414,0.032715,390.000000,1.947403,-1.651764,3.002167,390.000000,55.799957,15.149963,-118.200012,0.379470,4.358294,34.279690,0.204306,-0.000110,0.000030,-0.978698,0.000008,0.000013,0.020216,0.001565,0.000251,0.610348,0.692205,-0.000177,-0.294491,-0.262037,0.215908,0.465233,-0.115403,0.135942,0.433489,0.000155,-0.000403,0.119255,-0.000490,-0.000115,-0.893233,0.000010,-0.000211,0.379470,0.006623,0.999978,0.202873,-0.004264,4.358294,0.075993,0.997108,-0.132568,-0.006488,34.279690,0.563233,0.826298,0.595814,-0.015270
400.000000,400.000000,0.216309,-1.034179,0.031250,400.000000,1.520157,-2.201080,2.819061,400.000000,56.699966,15.899963,-117.000000,0.579929,4.230712,34.858734,0.204170,-0.000136,-0.000026,-0.978693,0.000006,-0.000003,0.021798,0.001582,0.000017,0.132121,-0.478228,-1.170433,-0.766667,-0.472175,-0.210139,0.182736,-0.282497,-0.167094,0.433196,-0.000293,-0.000449,0.118724,-0.000531,-0.000041,-0.893446,-0.000213,-0.000223,0.579929,0.010121,0.999949,0.200459,-0.002415,4.230712,0.073773,0.997275,-0.127582,0.004986,34.858734,0.571555,0.820564,0.579044,-0.016769
410.000000,410.000000,0.189941,-1.020996,0.038086,410.000000,1.764297,-2.750397,2.330780,410.000000,56.699966,14.999954,-116.850006,0.780856,4.101504,35.421463,0.203900,-0.000270,-0.000133,-0.978714,-0.000021,-0.000027,0.023324,0.001526,-0.000056,0.336265,0.204144,0.682372,-1.195799,-0.429132,0.043043,-0.368347,-0.551083,-0.268585,0.432822,-0.000374,-0.000081,0.118339,-0.000385,0.000146,-0.893678,-0.000232,-0.000019,0.780856,0.013628,0.999907,0.200927,0.000468,4.101504,0.071524,0.997439,-0.129208,-0.001626,35.421463,0.579587,0.814911,0.562729,-0.016315
420.000000,420.000000,0.204590,-1.034179,0.032715,420.000000,1.825333,-2.811432,2.208710,420.000000,58.199966,14.999954,-116.850006,0.978258,3.972544,35.972523,0.203293,-0.000608,-0.000338,-0.978804,-0.000090,-0.000069,0.024812,0.001488,-0.000039,0.346633,0.010368,-0.193776,-1.116864,0.078935,0.508067,-0.520886,-0.152539,0.398544,0.432820,-0.000001,0.000373,0.117925,-0.000414,-0.000029,-0.893734,-0.000055,0.000177,0.978258,0.017073,0.999854,0.197402,-0.003525,3.972544,0.069278,0.997597,-0.128960,0.000248,35.972523,0.587397,0.809299,0.551060,-0.011669
430.000000,430.000000,0.201172,-1.037597,0.037109,430.000000,1.825333,-3.238678,2.330780,430.000000,55.799957,16.949966,-118.650009,1.169499,3.844516,36.508305,0.202417,-0.000876,-0.000268,-0.978948,-0.000145,-0.000055,0.026223,0.001412,-0.000076,0.296427,-0.050206,-0.060574,-1.390716,-0.273852,-0.352787,-0.424955,0.095930,0.248469,0.433027,0.000207,0.000208,0.117652,-0.000273,0.000142,-0.893670,0.000064,0.000120,1.169499,0.020410,0.999792,0.191241,-0.006161,3.844516,0.067049,0.997750,-0.128028,0.000932,36.508305,0.594939,0.803771,0.535782,-0.015278
440.000000,440.000000,0.208008,-1.020508,0.037109,440.000000,1.642227,-3.604889,2.819061,440.000000,55.799957,15.599960,-118.800003,1.351024,3.719290,37.030388,0.201464,-0.000953,-0.000077,-0.979108,-0.000160,-0.000015,0.027556,0.001332,-0.000079,0.074222,-0.222206,-0.172000,-1.577646,-0.186930,0.086922,0.014721,0.439676,0.343746,0.432699,-0.000328,-0.000534,0.117841,0.000190,0.000462,-0.893804,-0.000134,-0.000198,1.351024,0.023578,0.999722,0.181525,-0.009717,3.719290,0.064868,0.997894,-0.125226,0.002802,37.030388,0.602239,0.798316,0.522083,-0.013699
450.000000,450.000000,0.197754,-1.027832,0.009766,450.000000,2.557755,-5.313873,2.635956,450.000000,57.149963,15.599960,-118.800003,1.529613,3.586360,37.526623,0.200519,-0.000945,0.000007,-0.979272,-0.000164,-0.000004,0.028618,0.001062,-0.000270,0.921518,0.847296,1.069502,-3.027142,-1.449496,-1.262566,-0.225252,-0.239973,-0.679649,0.431807,-0.000892,-0.000564,0.118173,0.000332,0.000142,-0.894191,-0.000388,-0.000254,1.529613,0.026694,0.999644,0.178589,-0.002935,3.586360,0.062553,0.998042,-0.132931,-0.007704,37.526623,0.609130,0.793070,0.496235,-0.025848
460.000000,460.000000,0.209961,-1.033691,0.034180,460.000000,3.107071,-5.374908,2.574921,460.000000,57.599960,15.449966,-116.850006,1.704151,3.450014,38.013405,0.199594,-0.000924,0.000021,-0.979443,-0.000171,-0.000008,0.029214,0.000595,-0.000467,1.342995,0.421477,-0.425819,-2.765622,0.261520,1.711016,-0.327205,-0.101953,0.138020,0.431134,-0.000673,0.000219,0.118348,0.000175,-0.000157,-0.894493,-0.000301,0.000086,1.704151,0.029739,0.999558,0.174538,-0.004051,3.450014,0.060178,0.998188,-0.136345,-0.003415,38.013405,0.615846,0.787867,0.486782,-0.009453
470.000000,470.000000,0.211914,-1.031250,0.017090,470.000000,3.534317,-5.741119,1.781464,470.000000,57.599960,14.849960,-118.800003,1.882054,3.311924,38.487198,0.198807,-0.000788,0.000137,-0.979596,-0.000153,0.000019,0.029461,0.000248,-0.000348,1.606796,0.263801,-0.157676,-2.807801,-0.042179,-0.303699,-1.119846,-0.792641,-0.690688,0.431057,-0.000077,0.000596,0.118287,-0.000061,-0.000236,-0.894538,-0.000045,0.000256,1.882054,0.032842,0.999461,0.177903,0.003365,3.311924,0.057772,0.998330,-0.138090,-0.001745,38.487198,0.622340,0.782747,0.473793,-0.012989
480.000000,480.000000,0.200684,-1.031738,0.029785,480.000000,4.327774,-6.473541,1.903534,480.000000,58.049957,14.849960,-118.800003,2.054472,3.168830,38.944176,0.198182,-0.000625,0.000162,-0.979723,-0.000127,0.000026,0.029457,-0.000005,-0.000252,2.192392,0.585596,0.321795,-3.186081,-0.378279,-0.336100,-0.965120,0.154726,0.947367,0.431375,0.000318,0.000395,0.117839,-0.000448,-0.000387,-0.894444,0.000094,0.000139,2.054472,0.035850,0.999357,0.172418,-0.005486,3.168830,0.055278,0.998471,-0.143094,-0.005004,38.944176,0.628563,0.777759,0.456978,-0.016815
490.000000,490.000000,0.209961,-1.039551,0.021973,490.000000,5.731583,-6.717682,1.659393,490.000000,58.049957,13.649963,-117.000000,2.225165,3.015072,39.389038,0.197611,-0.000571,0.000054,-0.979844,-0.000121,0.000006,0.029262,-0.000195,-0.000190,3.303742,1.111350,0.525753,-3.053096,0.132985,0.511264,-1.170200,-0.205079,-0.359805,0.432036,0.000661,0.000343,0.116900,-0.000939,-0.000491,-0.894248,0.000196,0.000102,2.225165,0.038827,0.999246,0.170693,-0.001725,3.015072,0.052599,0.998616,-0.153758,-0.010664,39.389038,0.634583,0.772855,0.444862,-0.012115
500.000000,500.000000,0.206543,-1.036621,0.018066,500.000000,5.487442,-6.290436,2.391815,500.000000,56.549957,13.649963,-117.000000,2.384677,2.867239,39.828259,0.197109,-0.000502,0.000069,-0.979956,-0.000113,0.000008,0.028875,-0.000388,-0.000193,2.731781,-0.571961,-1.683310,-2.277670,0.775426,0.642441,-0.419296,0.750903,0.955983,0.432963,0.000927,0.000266,0.115428,-0.001472,-0.000533,-0.893991,0.000257,0.000061,2.384677,0.041608,0.999134,0.159512,-0.011181,2.867239,0.050022,0.998748,-0.147834,0.005924,39.828259,0.640489,0.767968,0.439220,-0.005642
510.000000,510.000000,0.209961,-1.029297,0.012207,510.000000,5.670547,-7.083893,1.049042,510.000000,56.399963,16.349960,-118.200012,2.553706,2.721367,40.250355,0.196726,-0.000383,0.000119,-0.980053,-0.000097,0.000016,0.028193,-0.000682,-0.000294,2.606807,-0.124974,0.446987,-2.727223,-0.449553,-1.224979,-1.715667,-1.296371,-2.047275,0.433620,0.000657,-0.000269,0.113989,-0.001439,0.000033,-0.893857,0.000134,-0.000123,2.553706,0.044556,0.999007,0.169029,0.009517,2.721367,0.047479,0.998872,-0.145871,0.001962,40.250355,0.646129,0.763228,0.422096,-0.017124
520.000000,520.000000,0.216309,-1.027344,0.010742,520.000000,7.623672,-5.985260,1.110077,520.000000,57.899963,14.999954,-119.400009,2.718538,2.560453,40.674862,0.196545,-0.000181,0.000202,-0.980118,-0.000065,0.000032,0.027184,-0.001009,-0.000327,4.175709,1.568902,1.693876,-1.318382,1.408841,1.858394,-1.552529,0.163139,1.459509,0.433772,0.000152,-0.000505,0.113239,-0.000749,0.000690,-0.893878,-0.000021,-0.000155,2.718538,0.047430,0.998875,0.164832,-0.004196,2.560453,0.044673,0.999002,-0.160914,-0.015043,40.674862,0.651766,0.758420,0.424507,0.002411
530.000000,530.000000,0.216797,-1.027832,0.028320,530.000000,7.806778,-5.374908,0.499725,530.000000,57.899963,15.749954,-117.600006,2.886180,2.402319,41.097095,0.196658,0.000113,0.000294,-0.980127,-0.000009,0.000056,0.026024,-0.001160,-0.000151,3.902337,-0.273372,-1.842274,-0.491406,0.826975,-0.581866,-2.039605,-0.487076,-0.650214,0.433829,0.000057,-0.000095,0.113057,-0.000182,0.000567,-0.893874,0.000005,0.000026,2.886180,0.050352,0.998732,0.167642,0.002810,2.402319,0.041916,0.999121,-0.158134,0.002779,41.097095,0.657337,0.753597,0.422234,-0.002274
540.000000,540.000000,0.224609,-1.031250,0.031250,540.000000,8.600235,-5.191803,0.682831,540.000000,56.099960,15.749954,-117.600006,3.049180,2.240701,41.512871,0.197095,0.000437,0.000324,-0.980064,0.000063,0.000071,0.025056,-0.000968,0.000192,4.221290,0.318953,0.592325,-0.141566,0.349840,-0.477135,-1.718584,0.321020,0.808096,0.433924,0.000095,0.000038,0.113315,0.000258,0.000440,-0.893795,0.000079,0.000074,3.049180,0.053193,0.998584,0.163000,-0.004642,2.240701,0.039098,0.999235,-0.161618,-0.003484,41.512871,0.662788,0.748807,0.415775,-0.006458
550.000000,550.000000,0.205078,-1.010254,0.017090,550.000000,8.905411,-4.642487,0.560760,550.000000,56.399963,15.449966,-118.350006,3.210891,2.080163,41.926353,0.197762,0.000666,0.000229,-0.979948,0.000116,0.000053,0.024336,-0.000720,0.000248,4.030111,-0.191179,-0.510132,0.529361,0.670927,0.321087,-1.710278,0.008306,-0.312714,0.433687,-0.000238,-0.000332,0.113942,0.000627,0.000370,-0.893831,-0.000036,-0.000114,3.210891,0.056011,0.998430,0.161711,-0.001289,2.080163,0.036298,0.999341,-0.160538,0.001080,41.926353,0.668175,0.744004,0.413483,-0.002293
560.000000,560.000000,0.214844,-1.018554,0.026367,560.000000,8.539200,-4.337311,0.011444,560.000000,56.399963,16.499954,-117.600006,3.375581,1.927147,42.335716,0.198474,0.000712,0.000046,-0.979819,0.000129,0.000013,0.023714,-0.000621,0.000099,3.197747,-0.832363,-0.641184,0.907711,0.378350,-0.292576,-2.104895,-0.394617,-0.402923,0.433059,-0.000628,-0.000390,0.114822,0.000879,0.000252,-0.894023,-0.000192,-0.000156,3.375581,0.058881,0.998265,0.164690,0.002978,1.927147,0.033629,0.999434,-0.153016,0.007522,42.335716,0.673473,0.739211,0.409363,-0.004120
570.000000,570.000000,0.210449,-1.016113,0.042480,570.000000,9.149551,-3.787994,0.743866,570.000000,57.299957,16.499954,-117.600006,3.530620,1.771642,42.743469,0.199177,0.000703,-0.000009,-0.979685,0.000134,0.000005,0.023341,-0.000373,0.000248,3.358196,0.160448,0.992811,1.483994,0.576283,0.197932,-1.231967,0.872927,1.267544,0.432408,-0.000650,-0.000022,0.116065,0.001244,0.000364,-0.894177,-0.000154,0.000038,3.530620,0.061582,0.998102,0.155039,-0.009651,1.771642,0.030916,0.999522,-0.155505,-0.002488,42.743469,0.678717,0.734400,0.407753,-0.001610
580.000000,580.000000,0.216797,-1.006347,0.031738,580.000000,11.774063,-3.177643,1.598358,580.000000,57.449966,14.849960,-117.000000,3.675045,1.593455,43.149776,0.199913,0.000736,0.000033,-0.979534,0.000151,0.000017,0.023399,0.000058,0.000432,5.418943,2.060747,1.900299,2.064053,0.580060,0.003777,-0.311839,0.920128,0.047201,0.432121,-0.000287,0.000363,0.117360,0.001295,0.000051,-0.894147,0.000030,0.000184,3.675045,0.064098,0.997944,0.144425,-0.010614,1.593455,0.027807,0.999613,-0.178187,-0.022683,43.149776,0.683908,0.729568,0.406307,-0.001446
590.000000,590.000000,0.215820,-1.030761,0.040527,590.000000,16.473770,-2.201080,2.758026,590.000000,57.449966,14.999954,-117.600006,3.806140,1.372287,43.557652,0.200700,0.000787,0.000051,-0.979363,0.000171,0.000020,0.023812,0.000413,0.000354,9.269014,3.850071,1.789324,2.937291,0.873238,0.293178,0.823148,1.134987,0.214859,0.432298,0.000177,0.000464,0.118111,0.000751,-0.000544,-0.893962,0.000184,0.000154,3.806140,0.066381,0.997794,0.131095,-0.013330,1.372287,0.023949,0.999713,-0.221168,-0.042981,43.557652,0.689084,0.724681,0.407875,0.001568
600.000000,600.000000,0.219727,-1.036133,0.037598,600.000000,20.074844,-0.736237,3.734589,600.000000,56.249954,14.999954,-117.600006,3.925978,1.119437,43.971664,0.201496,0.000796,0.000009,-0.979183,0.000181,0.000010,0.024505,0.000693,0.000280,11.705821,2.436807,-1.413265,4.192245,1.254954,0.381716,1.683375,0.860227,-0.274760,0.432604,0.000306,0.000129,0.118248,0.000137,-0.000614,-0.893796,0.000166,-0.000018,3.925978,0.068468,0.997653,0.119838,-0.011256,1.119437,0.019537,0.999809,-0.252851,-0.031683,43.971664,0.694303,0.719683,0.414013,0.006138
610.000000,610.000000,0.223633,-1.040527,0.051758,610.000000,25.690079,2.128601,4.894257,610.000000,56.249954,14.399963,-117.450012,4.032992,0.815431,44.405735,0.202292,0.000796,-0.000001,-0.978993,0.000190,0.000009,0.025511,0.001006,0.000313,15.817839,4.112018,1.675211,6.663811,2.471566,1.216612,2.639250,0.955874,0.095647,0.432648,0.000044,-0.000262,0.117924,-0.000324,-0.000461,-0.893817,-0.000021,-0.000188,4.032992,0.070331,0.997524,0.107014,-0.012824,0.815431,0.014231,0.999899,-0.304005,-0.051155,44.405735,0.699735,0.714403,0.434071,0.020058
620.000000,620.000000,0.230469,-1.041015,0.040039,620.000000,29.352188,5.607605,5.870819,620.000000,56.249954,14.399963,-118.500000,4.129333,0.480076,44.865913,0.203172,0.000880,0.000084,-0.978776,0.000217,0.000027,0.026822,0.001312,0.000306,17.652214,1.834375,-2.277642,9.487530,2.823719,0.352153,3.328730,0.689481,-0.266394,0.432337,-0.000311,-0.000356,0.117147,-0.000778,-0.000454,-0.894070,-0.000253,-0.000232,4.129333,0.072008,0.997404,0.096342,-0.010672,0.480076,0.008379,0.999965,-0.335355,-0.031350,44.865913,0.705450,0.708760,0.460178,0.026108
630.000000,630.000000,0.229492,-1.020019,0.041504,630.000000,29.535294,9.208679,4.528046,630.000000,57.299957,14.399963,-118.500000,4.238155,0.147932,45.353149,0.204229,0.001057,0.000178,-0.978515,0.000261,0.000044,0.028270,0.001447,0.000135,15.936103,-1.716111,-3.550487,12.152078,2.664548,-0.159171,1.728464,-1.600266,-2.289746,0.431841,-0.000496,-0.000184,0.116010,-0.001137,-0.000359,-0.894458,-0.000388,-0.000135,4.238155,0.073902,0.997265,0.108821,0.012480,0.147932,0.002582,0.999997,-0.332144,0.003211,45.353149,0.711452,0.702735,0.487236,0.027058
640.000000,640.000000,0.224121,-1.054687,0.040039,640.000000,28.253555,11.711121,2.452850,640.000000,56.699966,14.099960,-118.200012,4.366512,-0.166690,45.856106,0.205395,0.001166,0.000109,-0.978228,0.000286,0.000026,0.029699,0.001429,-0.000018,12.904497,-3.031606,-1.315495,13.493266,1.341188,-1.323359,-0.442865,-2.171329,-0.571063,0.431412,-0.000430,0.000066,0.114666,-0.001344,-0.000207,-0.894838,-0.000381,0.000007,4.366512,0.076136,0.997097,0.128357,0.019536,-0.166690,-0.002909,0.999996,-0.314622,0.017522,45.856106,0.717593,0.696463,0.502956,0.015720
650.000000,650.000000,0.217285,-1.025390,0.033203,650.000000,27.032852,12.565613,0.560760,650.000000,56.699966,14.699966,-117.600006,4.512086,-0.464594,46.358212,0.206446,0.001051,-0.000115,-0.977967,0.000262,-0.000025,0.031003,0.001305,-0.000125,10.140270,-2.764227,0.267379,13.093098,-0.400168,-1.741357,-2.252756,-1.809892,0.361437,0.431111,-0.000301,0.000129,0.113318,-0.001348,-0.000004,-0.895155,-0.000317,0.000064,4.512086,0.078669,0.996901,0.145574,0.017217,-0.464594,-0.008109,0.999967,-0.297904,0.016719,46.358212,0.723669,0.690148,0.502106,-0.000851
660.000000,660.000000,0.199219,-1.034179,0.032715,660.000000,30.450821,12.870789,0.804901,660.000000,58.199966,14.699966,-117.600006,4.653172,-0.791279,46.853733,0.207135,0.000689,-0.000362,-0.977787,0.000180,-0.000082,0.032060,0.001057,-0.000248,12.009843,1.869573,4.633800,12.152033,-0.941065,-0.540896,-1.856854,0.395902,2.205794,0.431109,-0.000001,0.000300,0.112229,-0.001089,0.000258,-0.895293,-0.000138,0.000179,4.653172,0.081124,0.996704,0.141086,-0.004488,-0.791279,-0.013810,0.999905,-0.326686,-0.028782,46.853733,0.729610,0.683863,0.495522,-0.006584
670.000000,670.000000,0.186523,-1.041992,0.036133,670.000000,24.774551,12.992859,1.598358,670.000000,56.699966,13.499954,-118.650009,4.783668,-1.056748,47.340519,0.207137,0.000002,-0.000688,-0.977760,0.000027,-0.000153,0.032866,0.000806,-0.000251,4.976041,-7.033802,-8.903374,11.069914,-1.082119,-0.141054,-0.962152,0.894702,0.498800,0.431465,0.000356,0.000357,0.111285,-0.000945,0.000145,-0.895239,0.000053,0.000191,4.783668,0.083394,0.996517,0.130496,-0.010590,-1.056748,-0.018443,0.999830,-0.265469,0.061217,47.340519,0.735394,0.677640,0.486786,-0.008736
680.000000,680.000000,0.189941,-1.011719,0.053711,680.000000,24.957657,12.138367,1.659393,680.000000,57.149963,13.499954,-116.850006,4.910024,-1.319596,47.809082,0.206336,-0.000801,-0.000802,-0.977903,-0.000143,-0.000170,0.033635,0.000769,-0.000036,4.126225,-0.849816,6.183986,9.103846,-1.966068,-0.883949,-0.840478,0.121674,-0.773029,0.431890,0.000425,0.000069,0.110150,-0.001134,-0.000189,-0.895175,0.000064,0.000011,4.910024,0.085591,0.996330,0.126356,-0.004140,-1.319596,-0.023029,0.999735,-0.262848,0.002620,47.809082,0.740911,0.671603,0.468563,-0.018223
690.000000,690.000000,0.206055,-1.010742,0.070312,690.000000,23.981094,10.307312,1.720428,690.000000,57.149963,14.249954,-118.350006,5.031811,-1.568942,48.250214,0.205096,-0.001240,-0.000439,-0.978124,-0.000221,-0.000078,0.034775,0.001140,0.000370,2.223800,-1.902426,-1.052610,6.336415,-2.767430,-0.801362,-0.725974,0.114504,-0.007169,0.432315,0.000425,0.000001,0.108938,-0.001212,-0.000078,-0.895118,0.000057,-0.000007,5.031811,0.087709,0.996146,0.121787,-0.004569,-1.568942,-0.027380,0.999625,-0.249346,0.013503,48.250214,0.746060,0.665879,0.441132,-0.027431
700.000000,700.000000,0.207519,-1.014648,0.077637,700.000000,22.211075,9.452820,1.049042,700.000000,55.649963,14.249954,-118.350006,5.156309,-1.798082,48.674362,0.203859,-0.001237,0.000003,-0.978316,-0.000192,0.000029,0.036600,0.001826,0.000686,-0.284253,-2.508053,-0.605627,4.714464,-1.621952,1.145479,-1.319055,-0.593081,-0.707586,0.432495,0.000180,-0.000245,0.107988,-0.000950,0.000262,-0.895146,-0.000028,-0.000085,5.156309,0.089873,0.995953,0.124498,0.002711,-1.798082,-0.031377,0.999508,-0.229140,0.020205,48.674362,0.750969,0.660338,0.424149,-0.016983
710.000000,710.000000,0.224609,-1.008789,0.106445,710.000000,22.211075,8.232117,0.316620,710.000000,56.999954,13.199966,-119.400009,5.284411,-2.025841,49.078983,0.202913,-0.000946,0.000291,-0.978406,-0.000090,0.000102,0.039342,0.002741,0.000915,-0.884886,-0.600633,1.907419,2.862306,-1.852158,-0.230206,-1.915108,-0.596053,-0.002972,0.432151,-0.000345,-0.000525,0.107212,-0.000776,0.000174,-0.895406,-0.000260,-0.000232,5.284411,0.092100,0.995750,0.128102,0.003604,-2.025841,-0.035350,0.999375,-0.227759,0.001381,49.078983,0.755613,0.655018,0.404621,-0.019527
720.000000,720.000000,0.215332,-0.986816,0.107422,720.000000,22.394180,9.757996,-1.144409,720.000000,56.999954,13.649963,-117.450012,5.423761,-2.255355,49.491631,0.202446,-0.000467,0.000479,-0.978340,0.000066,0.000156,0.043200,0.003859,0.001118,-1.255959,-0.371073,0.229560,3.784035,0.921729,2.773886,-3.150190,-1.235082,-0.639029,0.431649,-0.000502,-0.000157,0.106351,-0.000861,-0.000085,-0.895750,-0.000345,-0.000085,5.423761,0.094521,0.995523,0.139349,0.011247,-2.255355,-0.039353,0.999225,-0.229513,-0.001754,49.491631,0.760311,0.649559,0.412647,0.008026
730.000000,730.000000,0.233398,-0.999023,0.105469,730.000000,19.769669,12.138367,-1.693726,730.000000,56.549957,13.649963,-117.450012,5.565858,-2.460215,49.920250,0.202531,0.000085,0.000552,-0.978097,0.000243,0.000177,0.048029,0.004828,0.000970,-4.276343,-3.020384,-2.649311,5.430454,1.646420,0.724691,-3.396264,-0.246074,0.989008,0.431368,-0.000282,0.000220,0.105517,-0.000834,0.000027,-0.895984,-0.000234,0.000110,5.565858,0.096990,0.995285,0.142097,0.002748,-2.460215,-0.042926,0.999078,-0.204860,0.024653,49.920250,0.765149,0.643853,0.428619,0.015972
740.000000,740.000000,0.245605,-0.994140,0.107910,740.000000,17.572403,15.495300,-2.426147,740.000000,58.349960,15.599960,-119.550003,5.713279,-2.645813,50.373798,0.203319,0.000788,0.000703,-0.977652,0.000445,0.000202,0.053455,0.005426,0.000597,-6.615082,-2.338739,0.681645,7.850492,2.420038,0.773618,-3.783730,-0.387466,-0.141392,0.431336,-0.000032,0.000250,0.105121,-0.000396,0.000437,-0.896046,-0.000062,0.000172,5.713279,0.099550,0.995033,0.147421,0.005324,-2.645813,-0.046162,0.998934,-0.185598,0.019262,50.373798,0.770222,0.637776,0.453548,0.024929
750.000000,750.000000,0.261719,-1.008301,0.091309,750.000000,15.558243,17.875671,-3.158569,750.000000,58.349960,12.899963,-119.250000,5.866999,-2.814560,50.841839,0.205018,0.001700,0.000912,-0.976975,0.000678,0.000233,0.059063,0.005609,0.000183,-8.554828,-1.939745,0.398994,9.100979,1.250487,-1.169551,-4.123954,-0.340224,0.047242,0.431619,0.000284,0.000315,0.105140,0.000019,0.000415,-0.895907,0.000139,0.000201,5.866999,0.102220,0.994762,0.153719,0.006298,-2.814560,-0.049104,0.998794,-0.168747,0.016851,50.841839,0.775406,0.631463,0.468040,0.014492
760.000000,760.000000,0.237793,-1.012207,0.079102,760.000000,14.581680,20.011902,-4.867554,760.000000,56.099960,12.899963,-119.250000,6.037354,-2.976549,51.321674,0.207475,0.002457,0.000758,-0.976125,0.000850,0.000172,0.064303,0.005240,-0.000369,-9.304813,-0.749986,1.189760,9.977221,0.876243,-0.374244,-5.353792,-1.229838,-0.889614,0.431961,0.000342,0.000058,0.104886,-0.000254,-0.000273,-0.895773,0.000135,-0.000004,6.037354,0.105177,0.994454,0.170355,0.016635,-2.976549,-0.051927,0.998651,-0.161989,0.006758,51.321674,0.780667,0.624947,0.479836,0.011795
770.000000,770.000000,0.241699,-1.008789,0.046875,770.000000,13.849258,22.270203,-4.501343,770.000000,57.299957,12.449966,-118.350006,6.204002,-3.133143,51.814644,0.210217,0.002742,0.000284,-0.975249,0.000875,0.000025,0.068541,0.004237,-0.001003,-9.722341,-0.417527,0.332458,10.858027,0.880806,0.004563,-4.473819,0.879973,2.109811,0.431997,0.000036,-0.000306,0.104045,-0.000841,-0.000587,-0.895853,-0.000081,-0.000216,6.204002,0.108069,0.994143,0.166648,-0.003706,-3.133143,-0.054656,0.998505,-0.156595,0.005394,51.814644,0.786015,0.618208,0.492970,0.013134
780.000000,780.000000,0.235840,-1.013672,0.041504,780.000000,10.797501,22.880554,-5.416870,780.000000,57.149963,12.599960,-118.500000,6.379537,-3.259945,52.304482,0.212940,0.002723,-0.000019,-0.974463,0.000786,-0.000089,0.071261,0.002720,-0.001517,-12.286175,-2.563834,-2.146307,10.046578,-0.811449,-1.692255,-4.877797,-0.403978,-1.283951,0.431936,-0.000061,-0.000097,0.102807,-0.001238,-0.000397,-0.896026,-0.000172,-0.000092,6.379537,0.111114,0.993808,0.175535,0.008887,-3.259945,-0.056866,0.998382,-0.126802,0.029792,52.304482,0.791271,0.611465,0.489838,-0.003132
790.000000,790.000000,0.238281,-1.011230,0.043457,790.000000,8.050919,24.162292,-7.675171,790.000000,57.449966,11.699966,-118.950012,6.576754,-3.358710,52.797760,0.215523,0.002584,-0.000139,-0.973809,0.000654,-0.000132,0.072421,0.001161,-0.001559,-14.293681,-2.007506,0.556328,9.908369,-0.138209,0.673240,-6.513417,-1.635620,-1.231641,0.431980,0.000045,0.000106,0.101250,-0.001557,-0.000319,-0.896181,-0.000156,0.000017,6.576754,0.114534,0.993419,0.197217,0.021681,-3.358710,-0.058587,0.998282,-0.098764,0.028038,52.797760,0.796506,0.604630,0.493279,0.003441
800.000000,800.000000,0.271973,-1.022949,0.058594,800.000000,6.647110,25.627136,-9.933472,800.000000,57.449966,11.999954,-116.850006,6.795231,-3.441815,53.296028,0.218134,0.002611,0.000027,-0.973226,0.000583,-0.000071,0.072441,0.000020,-0.001141,-14.792067,-0.498385,1.509121,9.919618,0.011249,0.149458,-7.985356,-1.471939,0.163681,0.432215,0.000234,0.000190,0.099422,-0.001828,-0.000272,-0.896273,-0.000092,0.000064,6.795231,0.118321,0.992975,0.218477,0.021261,-3.441815,-0.060035,0.998196,-0.083105,0.015659,53.296028,0.801734,0.597681,0.498268,0.004990
810.000000,810.000000,0.263184,-1.025390,0.040527,810.000000,3.412247,29.045105,-10.116577,810.000000,58.949966,11.999954,-116.850006,7.014588,-3.490707,53.817596,0.221080,0.002946,0.000335,-0.972619,0.000608,0.000025,0.071671,-0.000770,-0.000789,-16.943665,-2.151598,-1.653213,11.760674,1.841057,1.829808,-7.316957,0.668399,2.140338,0.432996,0.000781,0.000547,0.097558,-0.001864,-0.000035,-0.896101,0.000172,0.000264,7.014588,0.122122,0.992515,0.219357,0.000880,-3.490707,-0.060887,0.998145,-0.048892,0.034213,53.817596,0.807142,0.590358,0.521568,0.023300
820.000000,820.000000,0.253906,-1.021484,0.022461,820.000000,-1.527786,31.669617,-10.116577,820.000000,57.449966,13.199966,-119.400009,7.233224,-3.488327,54.353630,0.224217,0.003137,0.000192,-0.972020,0.000598,-0.000010,0.070022,-0.001649,-0.000880,-20.479368,-3.535704,-1.384106,12.641780,0.881105,-0.959951,-6.502589,0.814367,0.145968,0.434215,0.001219,0.000438,0.096029,-0.001530,0.000334,-0.895676,0.000425,0.000252,7.233224,0.125909,0.992042,0.218637,-0.000721,-3.488327,-0.060845,0.998147,0.002380,0.051273,54.353630,0.812629,0.582781,0.536034,0.014465
830.000000,830.000000,0.254883,-1.029785,0.014160,830.000000,-4.701614,33.317566,-9.750366,830.000000,57.599960,12.449966,-119.700012,7.447380,-3.451724,54.894650,0.227211,0.002994,-0.000143,-0.971518,0.000502,-0.000096,0.067287,-0.002734,-0.001085,-21.947613,-1.468245,2.067459,12.466076,-0.175704,-1.056809,-5.382595,1.119994,0.305627,0.435121,0.000906,-0.000313,0.095023,-0.001006,0.000524,-0.895344,0.000333,-0.000092,7.447380,0.129616,0.991564,0.214155,-0.004481,-3.451724,-0.060208,0.998186,0.036603,0.034223,54.894650,0.818096,0.575082,0.541019,0.004986
840.000000,840.000000,0.254883,-1.018066,0.026855,840.000000,-6.044388,34.355164,-10.055542,840.000000,57.599960,12.899963,-118.500000,7.663404,-3.398452,55.435284,0.229946,0.002735,-0.000259,-0.971120,0.000398,-0.000104,0.063648,-0.003639,-0.000905,-21.456604,0.491009,1.959253,11.674376,-0.791699,-0.615995,-4.979698,0.402897,-0.717097,0.435489,0.000368,-0.000538,0.094441,-0.000582,0.000423,-0.895226,0.000117,-0.000215,7.663404,0.133353,0.991069,0.216024,0.001869,-3.398452,-0.059279,0.998241,0.053272,0.016669,55.435284,0.823486,0.567337,0.540634,-0.000385
850.000000,850.000000,0.258789,-1.028320,0.017578,850.000000,-6.593704,34.843445,-12.130737,850.000000,59.099960,12.899963,-118.500000,7.898312,-3.336005,55.970299,0.232434,0.002488,-0.000246,-0.970791,0.000329,-0.000069,0.059495,-0.004153,-0.000514,-20.167286,1.289318,0.798309,10.380432,-1.293944,-0.502245,-6.285340,-1.305642,-1.708539,0.435809,0.000320,-0.000048,0.094216,-0.000224,0.000358,-0.895094,0.000132,0.000015,7.898312,0.137415,0.990514,0.234908,0.018883,-3.336005,-0.058191,0.998305,0.062447,0.009175,55.970299,0.828748,0.559623,0.535015,-0.005619
860.000000,860.000000,0.258301,-1.031738,0.033203,860.000000,-7.570267,34.721375,-13.778687,860.000000,58.949966,12.599960,-119.550003,8.147257,-3.260144,56.493492,0.234683,0.002249,-0.000239,-0.970506,0.000285,-0.000045,0.055150,-0.004345,-0.000193,-19.320063,0.847223,-0.442095,8.573450,-1.806982,-0.513038,-7.047541,-0.762201,0.543441,0.436429,0.000621,0.000301,0.094246,0.000030,0.000254,-0.894789,0.000306,0.000174,8.147257,0.141718,0.989907,0.248945,0.014038,-3.260144,-0.056870,0.998382,0.075861,0.013414,56.493492,0.833823,0.552032,0.523193,-0.011822
870.000000,870.000000,0.231934,-1.022461,0.037109,870.000000,-10.438919,34.111023,-13.961792,870.000000,58.949966,11.249954,-118.950012,8.395096,-3.152803,56.999989,0.236495,0.001812,-0.000437,-0.970294,0.000212,-0.000072,0.050989,-0.004161,0.000185,-20.281734,-0.961672,-1.808895,6.420647,-2.152803,-0.345821,-6.317119,0.730422,1.492623,0.437263,0.000833,0.000212,0.094116,-0.000130,-0.000159,-0.894396,0.000393,0.000087,8.395096,0.145998,0.989285,0.247839,-0.001106,-3.152803,-0.054999,0.998486,0.107341,0.031480,56.999989,0.838670,0.544639,0.506496,-0.016697
880.000000,880.000000,0.208496,-1.018554,0.039062,880.000000,-12.697220,32.707214,-13.656616,880.000000,58.799957,11.249954,-118.950012,8.636012,-3.021139,57.482166,0.237406,0.000911,-0.000901,-0.970258,0.000036,-0.000176,0.047305,-0.003684,0.000476,-20.501173,-0.219439,0.742233,3.667645,-2.753001,-0.600198,-5.157867,1.159252,0.428830,0.438155,0.000892,0.000058,0.093449,-0.000667,-0.000537,-0.894029,0.000367,-0.000027,8.636012,0.150157,0.988662,0.240916,-0.006923,-3.021139,-0.052704,0.998610,0.131664,0.024323,57.482166,0.843224,0.537562,0.482178,-0.024319
890.000000,890.000000,0.219727,-1.018066,0.033691,890.000000,-14.650345,31.242371,-14.450073,890.000000,59.699966,12.599960,-118.500000,8.879597,-2.869213,57.939724,0.237196,-0.000210,-0.001121,-0.970459,-0.000201,-0.000237,0.044128,-0.003177,0.000507,-20.332573,0.168600,0.388039,1.076474,-2.591172,0.161830,-5.128579,0.029288,-1.129964,0.439146,0.000992,0.000100,0.092502,-0.000947,-0.000280,-0.893641,0.000388,0.000022,8.879597,0.154359,0.988015,0.243585,0.002668,-2.869213,-0.050056,0.998746,0.151926,0.020262,57.939724,0.847490,0.530811,0.457558,-0.024620
900.000000,900.000000,0.214844,-1.043457,0.040527,900.000000,-14.467239,30.204773,-15.243530,900.000000,59.699966,13.949966,-118.950012,9.124712,-2.718904,58.377132,0.236059,-0.001136,-0.000926,-0.970856,-0.000396,-0.000195,0.041416,-0.002712,0.000465,-18.058077,2.274496,2.105896,-0.889774,-1.966248,0.624924,-5.082402,0.046177,0.016890,0.440324,0.001178,0.000186,0.092054,-0.000448,0.000499,-0.893107,0.000534,0.000146,9.124712,0.158584,0.987346,0.245115,0.001531,-2.718904,-0.047436,0.998874,0.150309,-0.001616,58.377132,0.851518,0.524326,0.437408,-0.020149
910.000000,910.000000,0.230469,-1.041504,0.035156,910.000000,-13.734818,29.716492,-15.548706,910.000000,58.949966,13.949966,-118.950012,9.365800,-2.576084,58.800262,0.234288,-0.001771,-0.000635,-0.971379,-0.000523,-0.000127,0.039150,-0.002266,0.000446,-15.383286,2.674790,0.400294,-2.160036,-1.270262,0.695986,-4.553883,0.528519,0.482341,0.441493,0.001169,-0.000009,0.092560,0.000506,0.000954,-0.892478,0.000630,0.000096,9.365800,0.162737,0.986669,0.241088,-0.004027,-2.576084,-0.044946,0.998989,0.142820,-0.007489,58.800262,0.855367,0.518023,0.423130,-0.014278
920.000000,920.000000,0.239746,-1.048340,0.053223,920.000000,-14.528275,30.143738,-15.792847,920.000000,59.099960,13.949966,-119.400009,9.602084,-2.426249,59.218834,0.232290,-0.001998,-0.000227,-0.971928,-0.000549,-0.000026,0.037392,-0.001758,0.000508,-14.337357,1.045930,-1.628860,-2.438392,-0.278355,0.991907,-3.994711,0.559172,0.030654,0.442335,0.000842,-0.000327,0.093834,0.001274,0.000768,-0.891927,0.000550,-0.000079,9.602084,0.166805,0.985990,0.236284,-0.004804,-2.426249,-0.042333,0.999104,0.149835,0.007015,59.218834,0.859128,0.511760,0.418571,-0.004559
930.000000,930.000000,0.252930,-1.029785,0.061523,930.000000,-15.321732,31.547546,-17.745972,930.000000,59.099960,12.899963,-119.250000,9.850694,-2.270409,59.643044,0.230526,-0.001764,0.000234,-0.972386,-0.000459,0.000090,0.036368,-0.001024,0.000734,-13.326180,1.011177,-0.034753,-1.749742,0.688650,0.967005,-5.102704,-1.107993,-1.667165,0.442808,0.000472,-0.000370,0.095333,0.001499,0.000225,-0.891534,0.000393,-0.000157,9.850694,0.171081,0.985257,0.248610,0.012325,-2.270409,-0.039616,0.999215,0.155840,0.006005,59.643044,0.862894,0.505386,0.424210,0.005638
940.000000,940.000000,0.257324,-1.030761,0.061523,940.000000,-16.847610,32.218933,-17.501831,940.000000,60.899963,12.899963,-119.250000,10.090523,-2.102521,60.065552,0.229326,-0.001200,0.000564,-0.972676,-0.000290,0.000169,0.036199,-0.000169,0.000855,-13.051212,0.274967,-0.736210,-1.813625,-0.063883,-0.752533,-3.995429,1.107275,2.215267,0.443245,0.000437,-0.000035,0.096528,0.001194,-0.000305,-0.891188,0.000346,-0.000048,10.090523,0.175204,0.984532,0.239829,-0.008780,-2.102521,-0.036688,0.999327,0.167888,0.012048,60.065552,0.866597,0.499009,0.422508,-0.001701
950.000000,950.000000,0.273437,-1.027832,0.068848,950.000000,-19.105911,33.012390,-18.417358,950.000000,60.749954,12.149963,-118.800003,10.334023,-1.916570,60.486965,0.228893,-0.000433,0.000767,-0.972755,-0.000079,0.000211,0.036806,0.000607,0.000776,-13.450901,-0.399689,-0.674656,-1.748458,0.065167,0.129050,-4.076474,-0.081045,-1.188320,0.444088,0.000843,0.000406,0.097148,0.000621,-0.000574,-0.890701,0.000488,0.000142,10.334023,0.179386,0.983779,0.243501,0.003672,-1.916570,-0.033444,0.999441,0.185951,0.018063,60.486965,0.870244,0.492622,0.421413,-0.001095
960.000000,960.000000,0.282715,-1.025390,0.047852,960.000000,-21.303177,33.988953,-19.821167,960.000000,60.749954,11.249954,-119.400009,10.587012,-1.714144,60.908466,0.229393,0.000500,0.000933,-0.972594,0.000161,0.000241,0.037938,0.001132,0.000525,-13.707395,-0.256494,0.143195,-1.507076,0.241382,0.176214,-4.602287,-0.525813,-0.444767,0.445337,0.001249,0.000405,0.096989,-0.000159,-0.000780,-0.890094,0.000606,0.000119,10.587012,0.183729,0.982977,0.252989,0.009488,-1.714144,-0.029913,0.999552,0.202426,0.016475,60.908466,0.873844,0.486206,0.421501,0.000088
970.000000,970.000000,0.279297,-1.012207,0.046387,970.000000,-23.195267,35.087585,-21.041870,970.000000,60.149963,11.249954,-119.400009,10.848627,-1.498695,61.331055,0.230844,0.001451,0.000951,-0.972202,0.000392,0.000231,0.039172,0.001234,0.000102,-13.598371,0.109024,0.365518,-1.163757,0.343319,0.101937,-4.890853,-0.288566,0.237247,0.446625,0.001288,0.000039,0.095959,-0.001029,-0.000870,-0.889560,0.000534,-0.000072,10.848627,0.188215,0.982128,0.261615,0.008626,-1.498695,-0.026154,0.999658,0.215450,0.013024,61.331055,0.877406,0.479748,0.422588,0.001087
980.000000,980.000000,0.268066,-1.023437,0.032227,980.000000,-24.293900,36.552429,-21.652222,980.000000,59.999954,11.849960,-118.500000,11.113480,-1.277988,61.758472,0.232946,0.002102,0.000650,-0.971660,0.000542,0.000150,0.040171,0.000998,-0.000236,-12.688254,0.910116,0.801092,-0.494935,0.668823,0.325504,-4.552576,0.338277,0.626843,0.447692,0.001066,-0.000222,0.094424,-0.001535,-0.000506,-0.889189,0.000372,-0.000162,11.113480,0.192753,0.981247,0.264853,0.003238,-1.277988,-0.022303,0.999751,0.220706,0.005257,61.758472,0.880961,0.473189,0.427418,0.004829
990.000000,990.000000,0.260254,-0.988769,0.055664,990.000000,-25.941849,38.017273,-21.652222,990.000000,59.099960,14.249954,-118.650009,11.375806,-1.046459,62.191067,0.235287,0.002341,0.000240,-0.971064,0.000596,0.000053,0.040921,0.000750,-0.000248,-12.333018,0.355236,-0.554880,0.118892,0.613827,-0.054996,-3.642029,0.910547,0.572270,0.448390,0.000699,-0.000368,0.093255,-0.001170,0.000366,-0.888960,0.000229,-0.000143,11.375806,0.197243,0.980355,0.262326,-0.002526,-1.046459,-0.018263,0.999833,0.231530,0.010823,62.191067,0.884508,0.466525,0.432594,0.005177
1000.000000,1000.000000,0.250977,-1.006347,0.053223,1000.000000,-27.711868,38.749695,-22.445679,1000.000000,59.099960,14.399963,-117.750000,11.643349,-0.803156,62.622280,0.237556,0.002269,-0.000072,-0.970479,0.000586,-0.000010,0.041696,0.000775,0.000025,-12.078149,0.254869,-0.100367,-0.020514,-0.139406,-0.753233,-3.554114,0.087915,-0.822632,0.448620,0.000229,-0.000469,0.093268,0.000013,0.001183,-0.888843,0.000117,-0.000111,11.643349,0.201819,0.979423,0.267543,0.005217,-0.803156,-0.014017,0.999902,0.243302,0.011773,62.622280,0.887994,0.459855,0.431213,-0.001381
1010.000000,1010.000000,0.252930,-0.995605,0.031738,1010.000000,-28.566360,39.360046,-22.506714,1010.000000,61.799957,14.399963,-117.750000,11.908504,-0.557263,63.051113,0.239551,0.001994,-0.000275,-0.969955,0.000523,-0.000062,0.042451,0.000755,-0.000020,-10.923567,1.154582,0.899713,-0.264755,-0.244241,-0.104835,-2.759651,0.794463,0.706548,0.448827,0.000208,-0.000022,0.094451,0.001183,0.001169,-0.888613,0.000230,0.000112,11.908504,0.206349,0.978478,0.265155,-0.002388,-0.557263,-0.009726,0.999953,0.245893,0.002591,63.051113,0.891411,0.453195,0.428833,-0.002380
1020.000000,1020.000000,0.257812,-1.014160,0.033691,1020.000000,-29.481888,39.176941,-23.361206,1020.000000,61.949966,14.249954,-118.650009,12.178742,-0.307801,63.469116,0.241250,0.001700,-0.000295,-0.969517,0.000439,-0.000085,0.042843,0.000392,-0.000363,-9.884258,1.039309,-0.115273,-1.246205,-0.981450,-0.737209,-2.781284,-0.021633,-0.816097,0.449668,0.000841,0.000633,0.096255,0.001804,0.000622,-0.887994,0.000619,0.000389,12.178742,0.210962,0.977494,0.270239,0.005084,-0.307801,-0.005372,0.999986,0.249462,0.003569,63.469116,0.894694,0.446680,0.418003,-0.010830
1030.000000,1030.000000,0.267578,-1.006836,0.026855,1030.000000,-31.068802,39.176941,-23.788452,1030.000000,61.949966,13.649963,-119.250000,12.449584,-0.047693,63.877556,0.242791,0.001541,-0.000159,-0.969136,0.000381,-0.000058,0.042756,-0.000087,-0.000479,-9.538176,0.346083,-0.693226,-1.964351,-0.718146,0.263305,-2.381889,0.399395,0.421029,0.451068,0.001399,0.000558,0.098128,0.001873,0.000069,-0.887079,0.000915,0.000296,12.449584,0.215580,0.976486,0.270842,0.000603,-0.047693,-0.000832,1.000000,0.260108,0.010646,63.877556,0.897855,0.440291,0.408440,-0.009563
1040.000000,1040.000000,0.267578,-0.984863,0.029297,1040.000000,-32.411575,39.054871,-24.337769,1040.000000,61.949966,13.649963,-119.250000,12.722248,0.220966,64.275162,0.244366,0.001575,0.000034,-0.968763,0.000373,-0.000008,0.042237,-0.000519,-0.000432,-8.951944,0.586231,0.240149,-2.730779,-0.766429,-0.048283,-2.124217,0.257672,-0.141723,0.452610,0.001542,0.000143,0.099663,0.001535,-0.000339,-0.886122,0.000957,0.000042,12.722248,0.220225,0.975449,0.272664,0.001822,0.220966,0.003857,0.999993,0.268658,0.008550,64.275162,0.900889,0.434050,0.397606,-0.010834
1050.000000,1050.000000,0.280273,-0.997070,0.033691,1050.000000,-34.852982,39.848328,-24.398804,1050.000000,61.649963,13.649963,-117.750000,12.992152,0.509109,64.670975,0.246145,0.001779,0.000204,-0.968347,0.000416,0.000043,0.041430,-0.000807,-0.000288,-9.432620,-0.480676,-1.066907,-2.545983,0.184797,0.951226,-1.413364,0.710853,0.453181,0.454139,0.001529,-0.000013,0.100780,0.001117,-0.000418,-0.885213,0.000909,-0.000048,12.992152,0.224818,0.974401,0.269904,-0.002760,0.509109,0.008886,0.999961,0.288143,0.019485,64.670975,0.903866,0.427816,0.395813,-0.001793
1060.000000,1060.000000,0.290039,-0.988769,0.018066,1060.000000,-35.463333,41.069031,-24.703979,1060.000000,61.649963,14.399963,-117.000000,13.262169,0.798674,65.069130,0.248285,0.002140,0.000361,-0.967845,0.000502,0.000087,0.040390,-0.001039,-0.000232,-8.085299,1.347321,1.827996,-1.958598,0.587385,0.402588,-0.991141,0.422223,-0.288630,0.455685,0.001547,0.000017,0.101705,0.000925,-0.000192,-0.884312,0.000901,-0.000008,13.262169,0.229407,0.973331,0.270017,0.000113,0.798674,0.013939,0.999903,0.289565,0.001421,65.069130,0.906817,0.421524,0.398155,0.002342
1070.000000,1070.000000,0.280273,-0.979492,0.023926,1070.000000,-37.172318,42.533875,-24.398804,1070.000000,61.649963,14.399963,-117.000000,13.526782,1.100752,65.471863,0.250821,0.002536,0.000396,-0.967246,0.000599,0.000096,0.039049,-0.001341,-0.000302,-7.872871,0.212429,-1.134892,-1.180223,0.778375,0.190990,-0.017245,0.973897,0.551674,0.457255,0.001570,0.000023,0.102699,0.000993,0.000068,-0.883386,0.000925,0.000024,13.526782,0.233900,0.972261,0.264613,-0.005404,1.100752,0.019211,0.999815,0.302078,0.012514,65.471863,0.909757,0.415140,0.402733,0.004578
1080.000000,1080.000000,0.301758,-0.985351,0.021484,1080.000000,-37.843704,45.219421,-24.642944,1080.000000,62.699966,13.649963,-117.450012,13.791896,1.405201,65.890968,0.253705,0.002884,0.000349,-0.966555,0.000690,0.000091,0.037473,-0.001576,-0.000235,-6.656248,1.216623,1.004195,0.704086,1.884309,1.105935,0.348468,0.365712,-0.608184,0.458857,0.001602,0.000033,0.103654,0.000955,-0.000038,-0.882443,0.000943,0.000017,13.791896,0.238396,0.971168,0.265114,0.000501,1.405201,0.024523,0.999699,0.304449,0.002371,65.890968,0.912770,0.408474,0.419106,0.016373
1090.000000,1090.000000,0.285644,-1.000000,0.016602,1090.000000,-37.904739,47.538757,-24.887085,1090.000000,62.699966,15.149963,-118.800003,14.057821,1.706192,66.322472,0.256859,0.003154,0.000269,-0.965788,0.000767,0.000077,0.035727,-0.001745,-0.000169,-4.934086,1.722161,0.505538,2.075226,1.371140,-0.513169,0.681769,0.333301,-0.032411,0.460464,0.001607,0.000005,0.104463,0.000809,-0.000146,-0.881510,0.000933,-0.000010,14.057821,0.242901,0.970051,0.265925,0.000812,1.706192,0.029774,0.999557,0.300991,-0.003458,66.322472,0.915820,0.401589,0.431503,0.012398
1100.000000,1100.000000,0.282227,-1.000000,0.012207,1100.000000,-38.698196,49.980164,-25.863647,1100.000000,61.199966,15.149963,-118.800003,14.331655,2.011224,66.767830,0.259957,0.003098,-0.000056,-0.965029,0.000759,-0.000008,0.033773,-0.001955,-0.000209,-4.040299,0.893787,-0.828374,3.438710,1.363484,-0.007656,0.283562,-0.398207,-0.731508,0.461683,0.001219,-0.000388,0.105405,0.000943,0.000134,-0.880760,0.000750,-0.000183,14.331655,0.247534,0.968879,0.273833,0.007908,2.011224,0.035095,0.999384,0.305032,0.004041,66.767830,0.918914,0.394458,0.445358,0.013855
1110.000000,1110.000000,0.289551,-0.991211,0.014160,1110.000000,-39.857864,51.139832,-25.863647,1110.000000,62.699966,15.149963,-118.200012,14.603359,2.324034,67.214943,0.262793,0.002836,-0.000261,-0.964334,0.000696,-0.000063,0.031630,-0.002143,-0.000188,-3.557534,0.482764,-0.411023,3.447233,0.008523,-1.354962,0.852264,0.568703,0.966910,0.462320,0.000637,-0.000582,0.106580,0.001174,0.000232,-0.880285,0.000476,-0.000274,14.603359,0.252126,0.967694,0.271705,-0.002129,2.324034,0.040551,0.999177,0.312810,0.007779,67.214943,0.921964,0.387275,0.447113,0.001755
1120.000000,1120.000000,0.301269,-1.001465,0.004395,1120.000000,-41.566849,52.116394,-26.351929,1120.000000,62.699966,14.399963,-118.800003,14.877627,2.650039,67.662155,0.265514,0.002721,-0.000115,-0.963661,0.000673,-0.000023,0.029333,-0.002297,-0.000154,-3.627818,-0.070284,-0.553048,3.266857,-0.180376,-0.188899,0.902331,0.050067,-0.518636,0.462751,0.000431,-0.000206,0.107694,0.001114,-0.000061,-0.879922,0.000362,-0.000113,14.877627,0.256755,0.966476,0.274268,0.002563,2.650039,0.046235,0.998931,0.326005,0.013195,67.662155,0.924959,0.380067,0.447212,0.000099
1130.000000,1130.000000,0.278809,-0.990234,0.002930,1130.000000,-42.604446,52.116394,-26.596069,1130.000000,61.049957,14.399963,-118.800003,15.151877,2.982626,68.100014,0.268118,0.002604,-0.000117,-0.963012,0.000649,-0.000024,0.026845,-0.002487,-0.000190,-3.036207,0.591611,0.661895,2.155348,-1.111509,-0.931133,1.178262,0.275931,0.225864,0.462973,0.000222,-0.000209,0.108449,0.000755,-0.000358,-0.879713,0.000209,-0.000153,15.151877,0.261379,0.965236,0.274250,-0.000018,2.982626,0.052033,0.998645,0.332587,0.006582,68.100014,0.927836,0.372988,0.437859,-0.009354
1140.000000,1140.000000,0.272461,-1.001465,-0.012207,1140.000000,-44.374466,51.200867,-26.412964,1140.000000,62.099960,18.299957,-117.900009,15.421392,3.329177,68.520210,0.270275,0.002157,-0.000447,-0.962482,0.000530,-0.000118,0.024083,-0.002763,-0.000275,-3.184017,-0.147810,-0.739421,0.254458,-1.900890,-0.789381,1.834960,0.656697,0.380766,0.462773,-0.000200,-0.000421,0.109400,0.000951,0.000196,-0.879700,0.000013,-0.000197,15.421392,0.265916,0.963996,0.269515,-0.004735,3.329177,0.058072,0.998312,0.346550,0.013963,68.520210,0.930547,0.366173,0.420197,-0.017662
1150.000000,1150.000000,0.283691,-0.993652,-0.011230,1150.000000,-45.228958,49.674988,-26.718140,1150.000000,62.249954,14.699966,-117.900009,15.690358,3.680872,68.917366,0.271847,0.001573,-0.000584,-0.962112,0.000370,-0.000160,0.020964,-0.003119,-0.000356,-2.431487,0.752530,0.900341,-2.069600,-2.324058,-0.423167,1.961826,0.126866,-0.529831,0.462467,-0.000306,-0.000106,0.111042,0.001642,0.000690,-0.879656,0.000045,0.000032,15.690358,0.270438,0.962737,0.268966,-0.000549,3.680872,0.064199,0.997937,0.351695,0.005145,68.917366,0.933063,0.359714,0.397156,-0.023041
1160.000000,1160.000000,0.298828,-0.994629,-0.001953,1160.000000,-46.083450,49.674988,-26.473999,1160.000000,62.249954,16.349960,-117.450012,15.953080,4.037859,69.306572,0.273147,0.001300,-0.000273,-0.961810,0.000302,-0.000068,0.017639,-0.003325,-0.000206,-1.733752,0.697735,-0.054795,-2.728667,-0.659067,1.664991,2.595937,0.634111,0.507245,0.462370,-0.000097,0.000209,0.112760,0.001718,0.000076,-0.879488,0.000167,0.000123,15.953080,0.274850,0.961487,0.262722,-0.006244,4.037859,0.070416,0.997518,0.356987,0.005292,69.306572,0.935485,0.353368,0.389206,-0.007950
1170.000000,1170.000000,0.295410,-0.996582,-0.008789,1170.000000,-45.412064,49.919128,-26.168823,1170.000000,62.099960,16.349960,-117.450012,16.209116,4.385031,69.690079,0.274471,0.001323,0.000023,-0.961488,0.000322,0.000020,0.014356,-0.003283,0.000042,0.370779,2.104531,1.406796,-3.087855,-0.359188,0.299879,3.224707,0.628770,-0.005342,0.462470,0.000101,0.000198,0.114359,0.001599,-0.000119,-0.879229,0.000260,0.000092,16.209116,0.279144,0.960249,0.256036,-0.006686,4.385031,0.076459,0.997073,0.347172,-0.009815,69.690079,0.937829,0.347098,0.383507,-0.005699
1180.000000,1180.000000,0.321289,-0.985351,0.003418,1180.000000,-45.839310,51.322937,-26.229858,1180.000000,63.149963,15.749954,-116.550003,16.462463,4.733121,70.078957,0.276020,0.001550,0.000227,-0.961086,0.000403,0.000080,0.011269,-0.003088,0.000195,1.244084,0.873304,-1.231227,-2.295563,0.792292,1.151480,3.437534,0.212827,-0.415942,0.462852,0.000381,0.000281,0.115924,0.001565,-0.000034,-0.878823,0.000406,0.000146,16.462463,0.283387,0.959006,0.253347,-0.002688,4.733121,0.082515,0.996590,0.348090,0.000917,70.078957,0.940163,0.340725,0.388878,0.005371
1190.000000,1190.000000,0.322754,-0.987793,-0.003906,1190.000000,-45.778275,52.482605,-26.107788,1190.000000,63.149963,17.699966,-116.550003,16.711992,5.076939,70.470070,0.278078,0.002057,0.000508,-0.960521,0.000565,0.000162,0.008505,-0.002763,0.000325,2.505497,1.261414,0.388109,-1.795491,0.500072,-0.292221,3.794424,0.356890,0.144063,0.463715,0.000863,0.000482,0.117465,0.001541,-0.000024,-0.878163,0.000660,0.000254,16.711992,0.287561,0.957762,0.249529,-0.003819,5.076939,0.088493,0.996077,0.343818,-0.004272,70.470070,0.942467,0.334299,0.391113,0.002235
1200.000000,1200.000000,0.334961,-0.999511,-0.005371,1200.000000,-45.900345,53.825378,-27.145386,1200.000000,63.899963,17.699966,-116.550003,16.969862,5.418002,70.864670,0.280733,0.002655,0.000598,-0.959767,0.000754,0.000189,0.006048,-0.002457,0.000306,3.475044,0.969547,-0.291867,-1.156005,0.639487,0.139415,2.997360,-0.797065,-1.153955,0.465058,0.001343,0.000479,0.119354,0.001889,0.000348,-0.877198,0.000965,0.000305,16.969862,0.291869,0.956458,0.257870,0.008341,5.418002,0.094421,0.995532,0.341063,-0.002754,70.864670,0.944747,0.327801,0.394600,0.003487
1210.000000,1210.000000,0.328613,-0.996582,-0.009277,1210.000000,-46.266556,54.862976,-27.023315,1210.000000,64.649963,15.449966,-116.250000,17.225096,5.758519,71.259071,0.283848,0.003116,0.000460,-0.958862,0.000905,0.000151,0.003795,-0.002253,0.000204,4.115494,0.640450,-0.329097,-0.858436,0.297569,-0.341917,3.366011,0.368651,1.165716,0.466884,0.001826,0.000483,0.121257,0.001903,0.000014,-0.875966,0.001232,0.000266,17.225096,0.296126,0.955149,0.255234,-0.002636,5.758519,0.100336,0.994954,0.340517,-0.000547,71.259071,0.946981,0.321290,0.394402,-0.000198
1220.000000,1220.000000,0.335937,-0.997070,-0.017578,1220.000000,-46.022415,57.243347,-27.999878,1220.000000,64.649963,16.199966,-116.850006,17.488857,6.092408,71.665680,0.287248,0.003399,0.000284,-0.957855,0.001007,0.000102,0.001639,-0.002157,0.000096,5.269766,1.154272,0.513823,0.701498,1.559933,1.262364,2.639709,-0.726302,-1.094953,0.469167,0.002283,0.000457,0.122442,0.001185,-0.000718,-0.874580,0.001386,0.000154,17.488857,0.300520,0.953775,0.263762,0.008528,6.092408,0.106132,0.994352,0.333889,-0.006628,71.665680,0.949237,0.314561,0.406609,0.012207
1230.000000,1230.000000,0.317383,-1.009277,-0.021973,1230.000000,-46.022415,58.464050,-28.793335,1230.000000,64.649963,16.199966,-116.850006,17.759203,6.422253,72.072510,0.290660,0.003412,0.000013,-0.956826,0.001029,0.000022,-0.000562,-0.002201,-0.000044,6.072453,0.802687,-0.351585,1.016876,0.315378,-1.244555,2.140333,-0.499376,0.226927,0.471596,0.002430,0.000147,0.122939,0.000497,-0.000688,-0.873203,0.001378,-0.000008,17.759203,0.305017,0.952347,0.270346,0.006584,6.422253,0.111855,0.993725,0.329845,-0.004044,72.072510,0.951447,0.307813,0.406830,0.000221
1240.000000,1240.000000,0.314453,-1.020996,-0.016113,1240.000000,-46.083450,56.816101,-30.075073,1240.000000,64.649963,16.949966,-117.600006,18.040310,6.748793,72.451614,0.293667,0.003008,-0.000404,-0.955903,0.000923,-0.000106,-0.002809,-0.002247,-0.000046,6.725562,0.653110,-0.149577,-1.442394,-2.459269,-2.774647,1.208266,-0.932066,-0.432691,0.473825,0.002229,-0.000200,0.123153,0.000214,-0.000282,-0.871965,0.001238,-0.000140,18.040310,0.309686,0.950839,0.281107,0.010761,6.748793,0.117516,0.993071,0.326540,-0.003304,72.451614,0.953463,0.301511,0.379105,-0.027725
1250.000000,1250.000000,0.296387,-1.015625,-0.008301,1250.000000,-46.632767,54.985046,-29.464722,1250.000000,64.799957,16.949966,-117.600006,18.312510,7.076702,72.802185,0.295914,0.002246,-0.000762,-0.955202,0.000701,-0.000222,-0.004904,-0.002095,0.000152,6.830666,0.105103,-0.548006,-3.862264,-2.419870,0.039399,2.160748,0.952482,1.884548,0.475656,0.001831,-0.000399,0.123365,0.000212,-0.000003,-0.870938,0.001027,-0.000211,18.312510,0.314200,0.949357,0.272200,-0.008907,7.076702,0.123198,0.992382,0.327909,0.001368,72.802185,0.955290,0.295672,0.350571,-0.028534
1260.000000,1260.000000,0.303223,-1.008301,-0.011230,1260.000000,-46.510696,52.970886,-29.464722,1260.000000,64.949966,19.649963,-113.850006,18.580933,7.398985,73.123398,0.297300,0.001387,-0.000859,-0.954761,0.000441,-0.000260,-0.006676,-0.001772,0.000323,7.543231,0.712566,0.607462,-6.236940,-2.374676,0.045194,2.440253,0.279505,-0.672976,0.477291,0.001634,-0.000196,0.124110,0.000745,0.000533,-0.869937,0.001001,-0.000027,18.580933,0.318644,0.947874,0.268423,-0.003777,7.398985,0.128778,0.991673,0.322283,-0.005625,73.123398,0.956932,0.290311,0.321213,-0.029358
1270.000000,1270.000000,0.303711,-1.005371,-0.012207,1270.000000,-47.365189,50.956726,-28.732300,1270.000000,64.949966,18.749954,-115.800003,18.837666,7.724954,73.415977,0.298011,0.000711,-0.000676,-0.954528,0.000233,-0.000208,-0.008139,-0.001463,0.000309,7.232584,-0.310648,-1.023214,-8.386143,-2.149203,0.225473,3.387366,0.947112,0.667607,0.479024,0.001733,0.000099,0.125885,0.001775,0.001030,-0.868729,0.001208,0.000208,18.837666,0.322888,0.946437,0.256733,-0.011690,7.724954,0.134418,0.990925,0.325969,0.003686,73.415977,0.958402,0.285421,0.292580,-0.028633
1280.000000,1280.000000,0.333496,-1.000000,-0.019043,1280.000000,-48.280716,51.445007,-27.450562,1280.000000,65.699966,18.749954,-115.800003,19.077271,8.054902,73.705139,0.298481,0.000469,-0.000242,-0.954369,0.000158,-0.000075,-0.009408,-0.001269,0.000194,6.862635,-0.369948,-0.059300,-7.927229,0.458913,2.608116,4.766595,1.379230,0.432117,0.480766,0.001742,0.000009,0.128300,0.002415,0.000640,-0.867412,0.001317,0.000109,19.077271,0.326843,0.945079,0.239605,-0.017128,8.054902,0.140122,0.990134,0.329948,0.003979,73.705139,0.959830,0.280581,0.289162,-0.003418
1290.000000,1290.000000,0.331543,-1.011230,-0.014648,1290.000000,-49.013138,52.238464,-27.389526,1290.000000,66.149963,19.499954,-115.500000,19.312294,8.386821,73.993973,0.299151,0.000670,0.000201,-0.954147,0.000222,0.000064,-0.010565,-0.001157,0.000112,6.673357,-0.189278,0.180671,-7.185466,0.741764,0.282850,4.842890,0.076295,-1.302935,0.482495,0.001729,-0.000013,0.130865,0.002565,0.000150,-0.866068,0.001344,0.000027,19.312294,0.330717,0.943730,0.235023,-0.004581,8.386821,0.145855,0.989306,0.331919,0.001971,73.993973,0.961233,0.275738,0.288834,-0.000328
1300.000000,1300.000000,0.350098,-0.989258,-0.042480,1300.000000,-50.294876,53.581238,-26.840210,1300.000000,65.399963,18.749954,-115.500000,19.538576,8.726141,74.287811,0.300264,0.001113,0.000443,-0.953783,0.000364,0.000142,-0.011792,-0.001227,-0.000070,5.949511,-0.723846,-0.534569,-5.954173,1.231293,0.489530,5.361460,0.518570,0.442275,0.484208,0.001713,-0.000016,0.133431,0.002566,0.000001,-0.864719,0.001348,0.000004,19.538576,0.334441,0.942417,0.226282,-0.008741,8.726141,0.151712,0.988425,0.339320,0.007401,74.287811,0.962634,0.270805,0.293839,0.005005
1310.000000,1310.000000,0.354980,-0.991699,-0.029297,1310.000000,-50.111771,55.290222,-26.901245,1310.000000,65.399963,18.749954,-113.700012,19.763041,9.058724,74.590233,0.302013,0.001749,0.000636,-0.953211,0.000572,0.000208,-0.013319,-0.001527,-0.000299,6.665914,0.716403,1.440249,-4.454773,1.499399,0.268106,5.231852,-0.129609,-0.648179,0.485790,0.001582,-0.000131,0.135727,0.002296,-0.000269,-0.863473,0.001246,-0.000103,19.763041,0.338131,0.941099,0.224464,-0.001818,9.058724,0.157447,0.987527,0.332583,-0.006737,74.590233,0.964050,0.265720,0.302422,0.008583
1320.000000,1320.000000,0.352539,-0.989746,-0.042480,1320.000000,-50.233841,55.534363,-26.046753,1320.000000,66.599960,18.749954,-113.700012,19.977530,9.388051,74.886452,0.304406,0.002393,0.000644,-0.952422,0.000789,0.000216,-0.015136,-0.001817,-0.000291,7.004302,0.338388,-0.378015,-4.467212,-0.012438,-1.511837,5.969234,0.737383,0.866992,0.487448,0.001658,0.000076,0.137616,0.001890,-0.000407,-0.862239,0.001234,-0.000012,19.977530,0.341652,0.939827,0.214489,-0.009975,9.388051,0.163120,0.986606,0.329327,-0.003257,74.886452,0.965411,0.260733,0.296219,-0.006203
1330.000000,1330.000000,0.346191,-0.991699,-0.039551,1330.000000,-50.783157,55.900574,-25.192261,1330.000000,66.449966,21.149963,-113.250000,20.182695,9.718672,75.177361,0.307172,0.002765,0.000372,-0.951499,0.000923,0.000134,-0.017195,-0.002059,-0.000242,6.878772,-0.125530,-0.463918,-4.344947,0.122265,0.134703,6.621366,0.652131,-0.085252,0.489397,0.001950,0.000292,0.139466,0.001850,-0.000040,-0.860837,0.001403,0.000169,20.182695,0.345015,0.938597,0.205166,-0.009323,9.718672,0.168811,0.985649,0.330621,0.001294,75.177361,0.966722,0.255828,0.290909,-0.005310
1340.000000,1340.000000,0.340332,-0.977051,-0.020508,1340.000000,-50.294876,57.243347,-24.948120,1340.000000,66.449966,23.249954,-113.400009,20.384813,10.040442,75.472847,0.310021,0.002849,0.000084,-0.950534,0.000965,0.000042,-0.019291,-0.002096,-0.000037,7.730429,0.851657,0.977187,-3.282535,1.062412,0.940147,6.609201,-0.012164,-0.664295,0.491457,0.002060,0.000110,0.142163,0.002697,0.000847,-0.859221,0.001616,0.000213,20.384813,0.348324,0.937374,0.202118,-0.003048,10.040442,0.174343,0.984685,0.321770,-0.008851,75.472847,0.968029,0.250839,0.295486,0.004578
1350.000000,1350.000000,0.350586,-0.980957,-0.030762,1350.000000,-51.027298,58.708191,-23.727417,1350.000000,65.549957,23.249954,-113.400009,20.574348,10.365191,75.774788,0.312847,0.002826,-0.000023,-0.949569,0.000965,0.000001,-0.021127,-0.001835,0.000261,7.312807,-0.417622,-1.269279,-2.181283,1.101251,0.038839,7.507222,0.898020,0.910184,0.493238,0.001781,-0.000279,0.146175,0.004012,0.001315,-0.857525,0.001695,0.000079,20.574348,0.351423,0.936217,0.189535,-0.012583,10.365191,0.179922,0.983681,0.324750,0.002980,75.774788,0.969337,0.245734,0.301941,0.006454
1360.000000,1360.000000,0.358398,-0.967773,-0.029785,1360.000000,-50.905228,59.867859,-23.788452,1360.000000,67.499954,21.599960,-112.800003,20.764227,10.684192,76.080681,0.315765,0.002917,0.000091,-0.948566,0.001003,0.000037,-0.022713,-0.001586,0.000249,7.720419,0.407612,0.825233,-1.457337,0.723947,-0.377304,7.074482,-0.432740,-1.330760,0.494731,0.001493,-0.000288,0.150782,0.004608,0.000596,-0.855866,0.001659,-0.000036,20.764227,0.354523,0.935047,0.189878,0.000343,10.684192,0.185395,0.982664,0.319000,-0.005750,76.080681,0.970635,0.240555,0.305893,0.003952
1370.000000,1370.000000,0.360351,-0.974609,-0.038086,1370.000000,-51.637650,60.844421,-22.933960,1370.000000,67.499954,19.499954,-114.450012,20.945717,11.005799,76.388237,0.318884,0.003119,0.000202,-0.947485,0.001080,0.000078,-0.024184,-0.001471,0.000115,7.246841,-0.473577,-0.881189,-0.964584,0.492753,-0.231194,7.527544,0.453062,0.885802,0.496287,0.001557,0.000064,0.154565,0.003783,-0.000825,-0.854288,0.001578,-0.000082,20.945717,0.357483,0.933920,0.181490,-0.008389,11.005799,0.190908,0.981608,0.321608,0.002607,76.388237,0.971913,0.235342,0.307556,0.001663
1380.000000,1380.000000,0.335937,-0.978515,-0.033203,1380.000000,-52.553177,62.553406,-21.163940,1380.000000,66.149963,19.499954,-114.450012,21.109976,11.331697,76.703995,0.321967,0.003083,-0.000036,-0.946405,0.001081,0.000000,-0.025602,-0.001419,0.000053,6.610997,-0.635844,-0.162267,0.190511,1.155095,0.662342,8.789382,1.261838,0.808776,0.497725,0.001437,-0.000119,0.156592,0.002027,-0.001756,-0.853082,0.001206,-0.000371,21.109976,0.360159,0.932891,0.164259,-0.017231,11.331697,0.196489,0.980506,0.325897,0.004290,76.703995,0.973195,0.229982,0.315758,0.008202
1390.000000,1390.000000,0.330078,-0.974121,-0.039551,1390.000000,-52.736282,64.872742,-20.248413,1390.000000,66.149963,22.499954,-112.350006,21.265125,11.654563,77.033897,0.324554,0.002587,-0.000497,-0.945483,0.000922,-0.000159,-0.026975,-0.001373,0.000046,6.704827,0.093830,0.729674,1.830502,1.639992,0.484897,9.093361,0.303979,-0.957859,0.498684,0.000960,-0.000478,0.157502,0.000910,-0.001117,-0.852354,0.000728,-0.000478,21.265125,0.362684,0.931912,0.155149,-0.009109,11.654563,0.202011,0.979383,0.322866,-0.003031,77.033897,0.974503,0.224375,0.329903,0.014145
1400.000000,1400.000000,0.332031,-0.965820,-0.040039,1400.000000,-53.102493,65.666199,-18.539429,1400.000000,66.149963,22.499954,-112.350006,21.402777,11.976237,77.363136,0.326482,0.001929,-0.000658,-0.944779,0.000704,-0.000218,-0.028338,-0.001363,0.000010,6.590195,-0.114632,-0.208462,1.864569,0.034067,-1.605925,10.096109,1.002748,0.698770,0.499307,0.000623,-0.000337,0.158605,0.001103,0.000193,-0.851784,0.000569,-0.000159,21.402777,0.364922,0.931038,0.137651,-0.017498,11.976237,0.207506,0.978234,0.321674,-0.001192,77.363136,0.975776,0.218771,0.329239,-0.000664
1410.000000,1410.000000,0.334961,-0.956054,-0.043945,1410.000000,-53.163528,67.314148,-17.074585,1410.000000,66.599960,23.549957,-112.650009,21.525084,12.293799,77.700508,0.327924,0.001442,-0.000487,-0.944236,0.000543,-0.000161,-0.029743,-0.001405,-0.000042,6.752319,0.162125,0.276757,2.706052,0.841483,0.807416,10.741918,0.645808,-0.356940,0.499782,0.000474,-0.000148,0.160370,0.001766,0.000663,-0.851175,0.000609,0.000040,21.525084,0.366909,0.930257,0.122307,-0.015345,12.293799,0.212925,0.977069,0.317562,-0.004112,77.700508,0.977047,0.213022,0.337372,0.008133
1420.000000,1420.000000,0.332031,-0.957519,-0.043457,1420.000000,-51.637650,68.107605,-15.853882,1420.000000,66.599960,24.449966,-111.000000,21.634357,12.591844,78.037849,0.329041,0.001118,-0.000324,-0.943800,0.000436,-0.000107,-0.031203,-0.001460,-0.000055,8.393097,1.640778,1.478653,2.648404,-0.057648,-0.899131,11.058694,0.316776,-0.329032,0.500254,0.000472,-0.000002,0.162873,0.002503,0.000737,-0.850422,0.000753,0.000144,21.634357,0.368682,0.929556,0.109274,-0.013033,12.591844,0.218004,0.975948,0.298044,-0.019518,78.037849,0.978285,0.207265,0.337341,-0.000031
1430.000000,1430.000000,0.354492,-0.969726,-0.050781,1430.000000,-49.867630,68.107605,-13.900757,1430.000000,67.649963,24.449966,-111.000000,21.723480,12.868457,78.367401,0.329994,0.000952,-0.000165,-0.943415,0.000384,-0.000051,-0.032736,-0.001533,-0.000073,10.096184,1.703087,0.062309,1.826674,-0.821730,-0.764082,12.007342,0.948648,0.631872,0.501011,0.000758,0.000285,0.166114,0.003241,0.000738,-0.849349,0.001074,0.000321,21.723480,0.370127,0.928981,0.089123,-0.020151,12.868457,0.222713,0.974884,0.276613,-0.021431,78.367401,0.979461,0.201635,0.329552,-0.007790
1440.000000,1440.000000,0.366211,-0.954101,-0.046875,1440.000000,-49.257278,69.572449,-13.656616,1440.000000,68.249954,23.099960,-112.050003,21.809824,13.135533,78.703209,0.331125,0.001131,0.000179,-0.942962,0.000454,0.000069,-0.034350,-0.001614,-0.000081,10.507043,0.410859,-1.292228,2.469095,0.642421,1.464151,11.195242,-0.812100,-1.760749,0.502238,0.001227,0.000469,0.169483,0.003369,0.000128,-0.847958,0.001391,0.000318,21.809824,0.371527,0.928422,0.086344,-0.002779,13.135533,0.227255,0.973835,0.267076,-0.009537,78.703209,0.980626,0.195891,0.335808,0.006256
1450.000000,1450.000000,0.364746,-0.940429,-0.027344,1450.000000,-48.646927,70.976257,-12.863159,1450.000000,68.849960,23.999954,-110.850006,21.888645,13.393111,79.043793,0.332737,0.001612,0.000481,-0.942339,0.000623,0.000169,-0.035830,-0.001480,0.000134,10.843266,0.336223,-0.074636,2.989182,0.520087,-0.122334,10.935330,-0.259912,0.552189,0.503953,0.001715,0.000488,0.172343,0.002859,-0.000510,-0.846362,0.001595,0.000204,21.888645,0.372804,0.927910,0.078821,-0.007523,13.393111,0.231631,0.972804,0.257578,-0.009499,79.043793,0.981773,0.190059,0.340584,0.004776
1460.000000,1460.000000,0.369629,-0.939941,-0.017578,1460.000000,-46.693802,72.196960,-11.337280,1460.000000,68.849960,25.649963,-111.000000,21.953545,13.627579,79.386742,0.334870,0.002133,0.000521,-0.941547,0.000792,0.000169,-0.036772,-0.000942,0.000537,12.394348,1.551083,1.214860,3.278605,0.289423,-0.230664,11.356789,0.421458,0.681370,0.506094,0.002141,0.000426,0.174954,0.002611,-0.000248,-0.844547,0.001815,0.000220,21.953545,0.373855,0.927487,0.064899,-0.013922,13.627579,0.235610,0.971848,0.234468,-0.023110,79.386742,0.982893,0.184179,0.342949,0.002365
1470.000000,1470.000000,0.355957,-0.936523,-0.021973,1470.000000,-45.412064,74.089050,-10.116577,1470.000000,70.049957,25.649963,-111.000000,22.008209,13.845133,79.738388,0.337350,0.002481,0.000348,-0.940651,0.000895,0.000103,-0.037014,-0.000242,0.000701,13.124506,0.730158,-0.820925,4.173241,0.894636,0.605213,11.407584,0.050796,-0.370663,0.508536,0.002442,0.000301,0.177805,0.002851,0.000240,-0.842483,0.002065,0.000250,22.008209,0.374739,0.927130,0.054665,-0.010235,13.845133,0.239298,0.970946,0.217554,-0.016913,79.738388,0.984005,0.178143,0.351646,0.008698
1480.000000,1480.000000,0.346191,-0.951172,-0.019043,1480.000000,-43.519974,74.089050,-7.369995,1480.000000,68.099960,23.999954,-110.100006,22.037832,14.039427,80.079941,0.339790,0.002440,-0.000041,-0.939786,0.000865,-0.000030,-0.036679,0.000335,0.000577,14.326815,1.202309,0.472151,3.166176,-1.007065,-1.901701,12.870523,1.462939,1.412144,0.511068,0.002532,0.000090,0.180588,0.002783,-0.000068,-0.840356,0.002127,0.000062,22.037832,0.375219,0.926936,0.029623,-0.025042,14.039427,0.242590,0.970129,0.194294,-0.023260,80.079941,0.985049,0.172274,0.341553,-0.010094
1490.000000,1490.000000,0.337891,-0.955078,-0.016602,1490.000000,-41.017532,73.539734,-5.599976,1490.000000,68.099960,24.149963,-109.350006,22.051922,14.204364,80.406387,0.341772,0.001982,-0.000458,-0.939098,0.000688,-0.000177,-0.035875,0.000804,0.000469,15.956589,1.629774,0.427465,1.707327,-1.458849,-0.451784,13.226318,0.355795,-1.107144,0.513359,0.002292,-0.000240,0.182739,0.002151,-0.000633,-0.838492,0.001864,-0.000263,22.051922,0.375447,0.926844,0.014090,-0.015533,14.204364,0.245381,0.969427,0.164937,-0.029357,80.406387,0.986015,0.166659,0.326447,-0.015106
1500.000000,1500.000000,0.334961,-0.947265,-0.012695,1500.000000,-37.660599,71.403503,-3.463745,1500.000000,69.899963,24.149963,-109.350006,22.046406,14.331623,80.702576,0.343107,0.001335,-0.000647,-0.938657,0.000441,-0.000247,-0.034643,0.001232,0.000428,18.204855,2.248266,0.618492,-1.151888,-2.859215,-1.400366,13.852180,0.625861,0.270066,0.515476,0.002117,-0.000175,0.184175,0.001435,-0.000715,-0.836877,0.001614,-0.000250,22.046406,0.375357,0.926880,-0.005516,-0.019606,14.331623,0.247534,0.968879,0.127259,-0.037678,80.702576,0.986863,0.161559,0.296188,-0.030258
1510.000000,1510.000000,0.328125,-0.949219,-0.021973,1510.000000,-35.341263,68.534851,-2.609253,1510.000000,68.999954,24.899963,-108.150009,22.033430,14.431753,80.961723,0.343784,0.000677,-0.000658,-0.938465,0.000193,-0.000248,-0.033115,0.001528,0.000296,19.200666,0.995811,-1.252455,-4.464241,-3.312353,-0.453138,13.146445,-0.705734,-1.331595,0.517729,0.002253,0.000136,0.185176,0.001001,-0.000434,-0.835264,0.001613,-0.000001,22.033430,0.375148,0.926965,-0.012976,-0.007460,14.431753,0.249227,0.968445,0.100130,-0.027129,80.961723,0.987584,0.157094,0.259148,-0.037041
1520.000000,1520.000000,0.339844,-0.936035,-0.022949,1520.000000,-34.181595,65.483093,-1.205444,1520.000000,68.999954,23.999954,-108.000000,22.007128,14.516583,81.182663,0.343941,0.000157,-0.000520,-0.938462,0.000003,-0.000190,-0.031531,0.001585,0.000057,18.929981,-0.270685,-1.266497,-7.653244,-3.189003,0.123351,12.976483,-0.169962,0.535772,0.520050,0.002321,0.000068,0.185966,0.000790,-0.000211,-0.833646,0.001619,0.000006,22.007128,0.374722,0.927137,-0.026302,-0.013327,14.516583,0.250660,0.968075,0.084830,-0.015300,81.182663,0.988182,0.153285,0.220940,-0.038208
1530.000000,1530.000000,0.338379,-0.919922,-0.042480,1530.000000,-33.205032,63.713074,0.682831,1530.000000,69.449966,23.999954,-108.000000,21.962770,14.588515,81.378708,0.343893,-0.000048,-0.000205,-0.938523,-0.000062,-0.000065,-0.030195,0.001336,-0.000249,18.435631,-0.494350,-0.223665,-9.316145,-1.662901,1.526101,13.235351,0.258867,0.428829,0.522295,0.002246,-0.000075,0.186446,0.000480,-0.000311,-0.832133,0.001512,-0.000106,21.962770,0.374004,0.927427,-0.044357,-0.018055,14.588515,0.251875,0.967760,0.071932,-0.012898,81.378708,0.988701,0.149903,0.196045,-0.024895
1540.000000,1540.000000,0.335937,-0.935547,-0.039062,1540.000000,-31.679153,62.309265,4.650116,1540.000000,70.049957,25.199966,-108.600006,21.880301,14.643059,81.553963,0.343803,-0.000090,-0.000042,-0.938582,-0.000059,0.000003,-0.029380,0.000815,-0.000521,18.439093,0.003462,0.497812,-10.452161,-1.136016,0.526886,15.410857,2.175507,1.916639,0.524447,0.002152,-0.000094,0.186698,0.000252,-0.000227,-0.830722,0.001411,-0.000101,21.880301,0.372669,0.927964,-0.082470,-0.038113,14.643059,0.252797,0.967519,0.054543,-0.017388,81.553963,0.989155,0.146878,0.175255,-0.020790
1550.000000,1550.000000,0.344726,-0.916992,-0.036133,1550.000000,-27.894974,59.684753,7.518768,1550.000000,70.049957,25.499954,-106.200012,21.771248,14.659043,81.697136,0.343709,-0.000095,-0.000005,-0.938626,-0.000044,0.000014,-0.029067,0.000313,-0.000502,20.532745,2.093653,2.090191,-12.619745,-2.167584,-1.031569,16.292269,0.881412,-1.294095,0.526589,0.002141,-0.000010,0.187186,0.000488,0.000235,-0.829256,0.001466,0.000055,21.771248,0.370902,0.928672,-0.109053,-0.026583,14.659043,0.253066,0.967449,0.015985,-0.038559,81.697136,0.989519,0.144406,0.143173,-0.032082
1560.000000,1560.000000,0.375488,-0.936035,-0.060547,1560.000000,-25.453568,56.022644,9.044647,1560.000000,70.349960,25.499954,-106.200012,21.649698,14.651029,81.798775,0.343932,0.000224,0.000319,-0.938538,0.000088,0.000133,-0.029266,-0.000199,-0.000512,21.086378,0.553633,-1.540020,-15.547853,-2.928108,-0.760524,15.752754,-0.539515,-1.420926,0.528904,0.002316,0.000174,0.188138,0.000952,0.000464,-0.827565,0.001691,0.000225,21.649698,0.368931,0.929457,-0.121550,-0.012497,14.651029,0.252931,0.967484,-0.008015,-0.023999,81.798775,0.989773,0.142650,0.101639,-0.041534
1570.000000,1570.000000,0.375488,-0.939941,-0.041504,1570.000000,-23.561478,53.215027,11.486053,1570.000000,69.899963,26.549957,-106.200012,21.507744,14.625605,81.868202,0.344817,0.000884,0.000661,-0.938189,0.000349,0.000261,-0.030053,-0.000787,-0.000588,20.987814,-0.098564,-0.652197,-17.350891,-1.803038,1.125071,16.075327,0.322573,0.862087,0.531304,0.002399,0.000083,0.189567,0.001430,0.000478,-0.825700,0.001865,0.000174,21.507744,0.366627,0.930368,-0.141954,-0.020405,14.625605,0.252502,0.967596,-0.025424,-0.017409,81.868202,0.989945,0.141451,0.069427,-0.032211
1580.000000,1580.000000,0.380859,-0.940918,-0.057129,1580.000000,-20.387650,51.994324,14.171600,1580.000000,69.899963,25.649963,-107.550003,21.344210,14.571100,81.922218,0.346359,0.001542,0.000658,-0.937581,0.000608,0.000259,-0.031274,-0.001221,-0.000434,22.044359,1.056545,1.155109,-17.417110,-0.066219,1.736818,16.543259,0.467932,0.145359,0.533388,0.002084,-0.000315,0.191346,0.001778,0.000349,-0.823944,0.001756,-0.000109,21.344210,0.363970,0.931411,-0.163534,-0.021580,14.571100,0.251581,0.967836,-0.054504,-0.029080,81.922218,0.990078,0.140517,0.054016,-0.015411
1590.000000,1590.000000,0.395508,-0.932129,-0.069824,1590.000000,-16.054153,52.970886,15.880585,1590.000000,70.799957,25.649963,-107.550003,21.169882,14.477339,81.983406,0.348535,0.002176,0.000634,-0.936715,0.000865,0.000257,-0.032981,-0.001707,-0.000487,24.037045,1.992685,0.936140,-15.310104,2.107006,2.173225,15.974768,-0.568491,-1.036423,0.534981,0.001593,-0.000492,0.193022,0.001676,-0.000102,-0.822519,0.001425,-0.000331,21.169882,0.361134,0.932514,-0.174328,-0.010794,14.477339,0.249997,0.968247,-0.093761,-0.039257,81.983406,0.990228,0.139460,0.061188,0.007172
1600.000000,1600.000000,0.376953,-0.962890,-0.064941,1600.000000,-13.368607,53.642273,18.810272,1600.000000,71.699966,24.299957,-106.950012,20.973619,14.361996,82.048630,0.351195,0.002660,0.000484,-0.935638,0.001078,0.000212,-0.035282,-0.002301,-0.000594,24.193140,0.156096,-1.836590,-13.616305,1.693799,-0.413207,16.561903,0.587135,1.155626,0.536409,0.001429,-0.000164,0.194102,0.001080,-0.000596,-0.821334,0.001186,-0.000239,20.973619,0.357938,0.933745,-0.196262,-0.021935,14.361996,0.248047,0.968748,-0.115343,-0.021582,82.048630,0.990386,0.138333,0.065224,0.004036
1610.000000,1610.000000,0.388184,-0.957519,-0.060547,1610.000000,-12.208939,53.764343,20.397186,1610.000000,71.699966,24.449966,-106.500000,20.769131,14.240900,82.111794,0.353935,0.002741,0.000081,-0.934500,0.001137,0.000060,-0.037939,-0.002657,-0.000356,22.784971,-1.408169,-1.564264,-12.540512,1.075793,-0.618006,15.752113,-0.809790,-1.396925,0.538066,0.001656,0.000227,0.194331,0.000229,-0.000851,-0.820196,0.001138,-0.000047,20.769131,0.354603,0.935017,-0.204489,-0.008226,14.240900,0.245999,0.969270,-0.121096,-0.005753,82.111794,0.990538,0.137241,0.063164,-0.002060
1620.000000,1620.000000,0.383789,-0.937500,-0.067383,1620.000000,-14.711380,52.482605,22.838593,1620.000000,71.699966,26.399963,-106.500000,20.548174,14.150222,82.158554,0.356641,0.002706,-0.000035,-0.933353,0.001147,0.000009,-0.040725,-0.002786,-0.000129,17.907469,-4.877502,-3.469334,-12.851604,-0.311091,-1.386885,15.769010,0.016896,0.826686,0.539918,0.001852,0.000196,0.194151,-0.000180,-0.000409,-0.819020,0.001176,0.000037,20.548174,0.350995,0.936377,-0.220957,-0.016468,14.150222,0.244465,0.969658,-0.090678,0.030417,82.158554,0.990649,0.136432,0.046761,-0.016403
1630.000000,1630.000000,0.410156,-0.916015,-0.073730,1630.000000,-17.335892,51.139832,23.509979,1630.000000,72.299957,26.399963,-106.500000,20.328741,14.090741,82.188583,0.359596,0.002955,0.000249,-0.932086,0.001267,0.000120,-0.043656,-0.002931,-0.000144,13.260237,-4.647232,0.230270,-13.146064,-0.294460,0.016631,14.031782,-1.737227,-1.754124,0.541776,0.001858,0.000005,0.194323,0.000172,0.000353,-0.817752,0.001269,0.000093,20.328741,0.347406,0.937715,-0.219433,0.001524,14.090741,0.243458,0.969911,-0.059481,0.031198,82.188583,0.990721,0.135913,0.030029,-0.016731
1640.000000,1640.000000,0.396484,-0.900879,-0.057617,1640.000000,-17.702103,48.820496,21.434784,1640.000000,71.999954,24.449966,-107.100006,20.138384,14.039804,82.192863,0.363082,0.003486,0.000531,-0.930589,0.001498,0.000231,-0.046651,-0.002995,-0.000064,11.118187,-2.142050,2.505182,-14.299936,-1.153872,-0.859412,9.762014,-4.269768,-2.532540,0.543542,0.001767,-0.000091,0.194677,0.000354,0.000182,-0.816494,0.001257,-0.000011,20.138384,0.344289,0.938864,-0.190357,0.029076,14.039804,0.242596,0.970127,-0.050938,0.008543,82.192863,0.990731,0.135839,0.004280,-0.025749
1650.000000,1650.000000,0.399902,-0.920898,-0.060059,1650.000000,-18.617630,46.867371,19.481659,1650.000000,71.999954,24.899963,-106.500000,19.975822,14.002382,82.175575,0.366967,0.003885,0.000399,-0.928920,0.001669,0.000171,-0.049432,-0.002781,0.000214,8.590805,-2.527382,-0.385332,-14.951369,-0.651433,0.502439,5.935156,-3.826858,0.442910,0.545122,0.001579,-0.000187,0.194595,-0.000082,-0.000436,-0.815460,0.001034,-0.000224,19.975822,0.341624,0.939837,-0.162561,0.027796,14.002382,0.241962,0.970286,-0.037421,0.013516,82.175575,0.990690,0.136138,-0.017288,-0.021568
1660.000000,1660.000000,0.396484,-0.916504,-0.060547,1660.000000,-18.861771,43.876648,18.566132,1660.000000,73.499954,24.899963,-106.500000,19.830418,13.971225,82.126923,0.370916,0.003949,0.000064,-0.927217,0.001703,0.000034,-0.051876,-0.002444,0.000337,6.888060,-1.702745,0.824636,-16.483423,-1.532054,-0.880621,3.403753,-2.531403,1.295455,0.546641,0.001519,-0.000060,0.194080,-0.000515,-0.000433,-0.814565,0.000895,-0.000139,19.830418,0.339237,0.940701,-0.145405,0.017157,13.971225,0.241435,0.970417,-0.031157,0.006264,82.126923,0.990574,0.136979,-0.048653,-0.031364
1670.000000,1670.000000,0.397461,-0.929687,-0.057617,1670.000000,-21.181107,41.862488,18.627167,1670.000000,72.899963,24.449966,-105.000000,19.692066,13.966134,82.056602,0.374709,0.003793,-0.000155,-0.925570,0.001647,-0.000056,-0.053983,-0.002107,0.000338,3.319046,-3.569013,-1.866268,-16.888805,-0.405382,1.126672,2.008843,-1.394910,1.136493,0.548399,0.001759,0.000239,0.193342,-0.000739,-0.000224,-0.813558,0.001007,0.000112,19.692066,0.336965,0.941517,-0.138351,0.007053,13.966134,0.241348,0.970439,-0.005091,0.026067,82.056602,0.990405,0.138195,-0.070320,-0.021667
1680.000000,1680.000000,0.384766,-0.922363,-0.072754,1680.000000,-21.303177,39.543152,18.627167,1680.000000,72.899963,26.249954,-104.850006,19.560768,13.964741,81.961792,0.378130,0.003421,-0.000372,-0.924067,0.001502,-0.000144,-0.055837,-0.001854,0.000252,2.142723,-1.176323,2.392690,-17.487814,-0.599009,-0.193626,0.666560,-1.342283,0.052627,0.550402,0.002003,0.000244,0.192722,-0.000619,0.000119,-0.812352,0.001206,0.000199,19.560768,0.334806,0.942287,-0.131298,0.007053,13.964741,0.241325,0.970444,-0.001393,0.003697,81.961792,0.990175,0.139833,-0.094810,-0.024490
1690.000000,1690.000000,0.363769,-0.954590,-0.064453,1690.000000,-19.899368,36.186218,19.237518,1690.000000,73.199966,26.249954,-104.850006,19.429438,13.951867,81.833038,0.380771,0.002641,-0.000780,-0.922875,0.001192,-0.000310,-0.057583,-0.001746,0.000109,2.517888,0.375165,1.551488,-18.962318,-1.474504,-0.875496,0.019713,-0.646848,0.695435,0.552440,0.002038,0.000036,0.192741,0.000019,0.000638,-0.810963,0.001389,0.000183,19.429438,0.332646,0.943052,-0.131330,-0.000032,13.951867,0.241107,0.970499,-0.012874,-0.011480,81.833038,0.989858,0.142058,-0.128754,-0.033943
1700.000000,1700.000000,0.352051,-0.977539,-0.068359,1700.000000,-18.617630,33.378601,19.908905,1700.000000,74.099960,23.999954,-105.150009,19.295816,13.928724,81.676537,0.382073,0.001303,-0.001338,-0.922235,0.000640,-0.000552,-0.059187,-0.001604,0.000141,2.734874,0.216987,-0.158178,-19.714355,-0.752037,0.722467,-0.513829,-0.533542,0.113306,0.554495,0.002055,0.000017,0.193073,0.000332,0.000313,-0.809480,0.001483,0.000093,19.295816,0.330445,0.943825,-0.133621,-0.002291,13.928724,0.240715,0.970596,-0.023143,-0.010269,81.676537,0.989467,0.144761,-0.156502,-0.027748
1710.000000,1710.000000,0.351074,-0.987304,-0.057617,1710.000000,-17.396927,31.913757,21.068573,1710.000000,74.099960,26.399963,-105.000000,19.153168,13.895721,81.505859,0.381773,-0.000300,-0.001603,-0.922273,-0.000038,-0.000678,-0.060515,-0.001328,0.000277,2.864695,0.129820,-0.087166,-19.043533,0.670822,1.422859,-0.533003,-0.019174,0.514368,0.556622,0.002127,0.000072,0.193223,0.000150,-0.000182,-0.807983,0.001497,0.000014,19.153168,0.328095,0.944645,-0.142649,-0.009027,13.895721,0.240156,0.970734,-0.033003,-0.009860,81.505859,0.989031,0.147708,-0.170677,-0.014175
1720.000000,1720.000000,0.377930,-1.005371,-0.067383,1720.000000,-17.213821,30.754089,22.045135,1720.000000,74.099960,26.399963,-105.000000,19.001858,13.862752,81.324417,0.380184,-0.001589,-0.001289,-0.922864,-0.000591,-0.000553,-0.061498,-0.000983,0.000345,1.980145,-0.884549,-1.014370,-18.065872,0.977661,0.306839,-0.723681,-0.190678,-0.171504,0.558675,0.002053,-0.000073,0.193606,0.000383,0.000233,-0.806473,0.001510,0.000013,19.001858,0.325599,0.945508,-0.151310,-0.008661,13.862752,0.239597,0.970872,-0.032969,0.000033,81.324417,0.988558,0.150840,-0.181442,-0.010765
1730.000000,1730.000000,0.393066,-0.983886,-0.055664,1730.000000,-18.312454,29.594421,22.777557,1730.000000,73.049957,23.399963,-105.450012,18.843767,13.841931,81.132782,0.378051,-0.002133,-0.000545,-0.923697,-0.000833,-0.000242,-0.062139,-0.000641,0.000342,-0.062717,-2.042862,-1.158313,-17.103069,0.962803,-0.014858,-1.128943,-0.405262,-0.214584,0.560394,0.001718,-0.000335,0.194028,0.000423,0.000040,-0.805178,0.001295,-0.000215,18.843767,0.322989,0.946403,-0.158091,-0.006781,13.841931,0.239244,0.970959,-0.020821,0.012149,81.132782,0.988048,0.154145,-0.191635,-0.010193
1740.000000,1740.000000,0.395019,-0.980957,-0.069336,1740.000000,-18.800735,27.702332,22.045135,1740.000000,73.049957,25.949966,-102.900009,18.693533,13.826691,80.924347,0.376041,-0.002010,0.000124,-0.924493,-0.000796,0.000038,-0.062500,-0.000361,0.000280,-1.347821,-1.285105,0.757757,-16.858093,0.244976,-0.717827,-2.896668,-1.767725,-1.362463,0.561710,0.001317,-0.000402,0.194008,-0.000021,-0.000443,-0.804265,0.000913,-0.000382,18.693533,0.320506,0.947246,-0.150234,0.007856,13.826691,0.238986,0.971023,-0.015241,0.005580,80.924347,0.987481,0.157738,-0.208435,-0.016800
1750.000000,1750.000000,0.384277,-0.984863,-0.064453,1750.000000,-18.373489,26.847839,21.556854,1750.000000,74.849960,25.949966,-102.900009,18.548948,13.807790,80.709679,0.374308,-0.001733,0.000277,-0.925180,-0.000688,0.000108,-0.062726,-0.000226,0.000134,-1.642826,-0.295005,0.990100,-15.577736,1.280357,1.035381,-4.269617,-1.372949,0.394776,0.563032,0.001322,0.000005,0.194114,0.000106,0.000127,-0.803315,0.000950,0.000037,18.548948,0.318115,0.948052,-0.144585,0.005650,13.807790,0.238665,0.971102,-0.018901,-0.003660,80.709679,0.986883,0.161437,-0.214668,-0.006233
1760.000000,1760.000000,0.390625,-0.978027,-0.064453,1760.000000,-18.068314,26.969910,21.190643,1760.000000,74.099960,23.849960,-103.200012,18.408934,13.786410,80.498085,0.372761,-0.001547,0.000186,-0.925794,-0.000614,0.000074,-0.062877,-0.000150,0.000076,-2.023307,-0.380480,-0.085475,-13.413251,2.164485,0.884128,-5.392933,-1.123316,0.249633,0.564701,0.001669,0.000347,0.194365,0.000251,0.000145,-0.802081,0.001233,0.000283,18.408934,0.315797,0.948827,-0.140015,0.004570,13.786410,0.238303,0.971191,-0.021379,-0.002479,80.498085,0.986280,0.165081,-0.211594,0.003075
1770.000000,1770.000000,0.386719,-0.960449,-0.058594,1770.000000,-17.763138,26.481628,20.580292,1770.000000,76.799957,24.449966,-103.650009,18.276100,13.762448,80.282867,0.371467,-0.001295,0.000252,-0.926313,-0.000519,0.000095,-0.062896,-0.000019,0.000131,-2.363791,-0.340485,0.039996,-11.965941,1.447309,-0.717175,-6.633892,-1.240959,-0.117643,0.566762,0.002061,0.000392,0.194080,-0.000285,-0.000537,-0.800696,0.001386,0.000152,18.276100,0.313596,0.949556,-0.132833,0.007181,13.762448,0.237897,0.971290,-0.023962,-0.002583,80.282867,0.985653,0.168784,-0.215218,-0.003624
1780.000000,1780.000000,0.381348,-0.961914,-0.070312,1780.000000,-17.274857,25.932312,19.908905,1780.000000,76.799957,23.999954,-103.500000,18.151262,13.734071,80.062653,0.370465,-0.001002,0.000293,-0.926719,-0.000405,0.000114,-0.062834,0.000062,0.000081,-2.491246,-0.127455,0.213030,-10.654855,1.311087,-0.136223,-7.802655,-1.168763,0.072196,0.569342,0.002580,0.000519,0.193167,-0.000913,-0.000628,-0.799084,0.001611,0.000226,18.151262,0.311527,0.950237,-0.124838,0.007996,13.734071,0.237416,0.971408,-0.028378,-0.004416,80.062653,0.984997,0.172571,-0.220215,-0.004997
1790.000000,1790.000000,0.374023,-0.949707,-0.075195,1790.000000,-16.603470,26.115417,19.603729,1790.000000,76.499954,23.999954,-103.500000,18.030893,13.699732,79.844147,0.369640,-0.000826,0.000176,-0.927044,-0.000325,0.000080,-0.062897,-0.000063,-0.000125,-2.423302,0.067944,0.195399,-8.714386,1.940469,0.629382,-8.492263,-0.689608,0.479155,0.572286,0.002944,0.000364,0.191835,-0.001332,-0.000419,-0.797301,0.001784,0.000172,18.030893,0.309530,0.950890,-0.120369,0.004469,13.699732,0.236834,0.971550,-0.034339,-0.005961,79.844147,0.984332,0.176326,-0.218506,0.001709
1800.000000,1800.000000,0.368164,-0.947265,-0.092285,1800.000000,-17.518997,25.382996,19.908905,1800.000000,75.749954,24.299957,-102.750000,17.908995,13.675594,79.618355,0.368864,-0.000776,0.000049,-0.927322,-0.000278,0.000048,-0.063358,-0.000460,-0.000397,-3.869929,-1.446627,-1.514571,-7.781717,0.932669,-1.007800,-8.507320,-0.015058,0.674551,0.575145,0.002859,-0.000085,0.190363,-0.001472,-0.000140,-0.795594,0.001706,-0.000078,17.908995,0.307506,0.951546,-0.121899,-0.001530,13.675594,0.236424,0.971650,-0.024137,0.010201,79.618355,0.983629,0.180204,-0.225792,-0.007286
1810.000000,1810.000000,0.372559,-0.956054,-0.094727,1810.000000,-18.434525,25.016785,20.336151,1810.000000,75.749954,23.549957,-102.450012,17.784393,13.662203,79.389427,0.368067,-0.000797,-0.000021,-0.927565,-0.000243,0.000035,-0.064424,-0.001066,-0.000606,-5.178935,-1.309006,0.137622,-6.548645,1.233072,0.300403,-8.372185,0.135136,0.150193,0.577661,0.002516,-0.000342,0.188970,-0.001393,0.000079,-0.794102,0.001492,-0.000214,17.784393,0.305436,0.952213,-0.124601,-0.002703,13.662203,0.236197,0.971705,-0.013391,0.010746,79.389427,0.982901,0.184133,-0.228928,-0.003136
1820.000000,1820.000000,0.344238,-0.928222,-0.120605,1820.000000,-19.411087,25.199890,22.106171,1820.000000,76.949966,23.549957,-102.450012,17.643843,13.660923,79.163063,0.367135,-0.000931,-0.000134,-0.927802,-0.000237,0.000006,-0.066290,-0.001866,-0.000800,-6.415456,-1.236521,0.072484,-4.870223,1.678422,0.445350,-6.932481,1.439703,1.304568,0.579919,0.002258,-0.000259,0.187584,-0.001386,0.000007,-0.792784,0.001318,-0.000175,17.643843,0.303099,0.952959,-0.140551,-0.015949,13.660923,0.236175,0.971710,-0.001280,0.012112,79.163063,0.982166,0.188015,-0.226364,0.002563
1830.000000,1830.000000,0.354980,-0.922363,-0.141602,1830.000000,-17.152786,24.223328,22.472382,1830.000000,76.499954,25.199966,-102.900009,17.501179,13.641226,78.928223,0.365977,-0.001158,-0.000227,-0.928039,-0.000237,0.000001,-0.069311,-0.003020,-0.001154,-4.428315,1.987142,3.223663,-4.425376,0.444846,-1.233576,-6.931795,0.000687,-1.439017,0.582003,0.002085,-0.000173,0.186410,-0.001174,0.000212,-0.791532,0.001252,-0.000066,17.501179,0.300725,0.953711,-0.142664,-0.002113,13.641226,0.235841,0.971792,-0.019697,-0.018417,78.928223,0.981387,0.192039,-0.234840,-0.008476
1840.000000,1840.000000,0.335449,-0.981445,-0.139648,1840.000000,-15.565872,19.218445,25.035858,1840.000000,76.649963,23.249954,-101.250000,17.334484,13.611635,78.645981,0.364438,-0.001539,-0.000381,-0.928313,-0.000274,-0.000037,-0.073621,-0.004310,-0.001290,-3.235605,1.192710,-0.794431,-7.854893,-3.429516,-3.874362,-4.803194,2.128601,2.127914,0.583886,0.001883,-0.000202,0.185677,-0.000733,0.000441,-0.790317,0.001215,-0.000037,17.334484,0.297949,0.954582,-0.166695,-0.024031,13.611635,0.235339,0.971913,-0.029591,-0.009893,78.645981,0.980429,0.196871,-0.282242,-0.047401
1850.000000,1850.000000,0.323242,-1.000976,-0.139648,1850.000000,-14.711380,17.021179,25.585175,1850.000000,74.999954,24.899963,-102.600006,17.162960,13.580636,78.345352,0.362040,-0.002399,-0.000860,-0.928821,-0.000508,-0.000234,-0.078862,-0.005241,-0.000931,-2.832670,0.402934,-0.789776,-8.277529,-0.422636,3.006880,-4.764056,0.039138,-2.089463,0.585422,0.001536,-0.000346,0.185260,-0.000417,0.000316,-0.789278,0.001039,-0.000176,17.162960,0.295090,0.955469,-0.171524,-0.004829,13.580636,0.234814,0.972040,-0.030999,-0.001409,78.345352,0.979383,0.202012,-0.300629,-0.018387
1860.000000,1860.000000,0.322754,-1.009277,-0.124023,1860.000000,-13.856888,14.762878,26.561737,1860.000000,74.999954,23.999954,-103.500000,16.981125,13.548647,78.027267,0.358491,-0.003549,-0.001150,-0.929704,-0.000883,-0.000375,-0.084467,-0.005605,-0.000364,-2.453291,0.379379,-0.023555,-8.691334,-0.413805,0.008831,-4.301564,0.462492,0.423354,0.586149,0.000727,-0.000810,0.185156,-0.000104,0.000312,-0.788763,0.000515,-0.000524,16.981125,0.292057,0.956401,-0.181835,-0.010311,13.548647,0.234271,0.972171,-0.031989,-0.000990,78.027267,0.978246,0.207446,-0.318085,-0.017456
1870.000000,1870.000000,0.331055,-1.034179,-0.105957,1870.000000,-12.697220,12.992859,27.233124,1870.000000,76.499954,23.999954,-103.500000,16.791018,13.512250,77.697983,0.353998,-0.004493,-0.000945,-0.930929,-0.001225,-0.000342,-0.089756,-0.005289,0.000316,-1.804984,0.648307,0.268928,-8.570051,0.121283,0.535088,-4.154055,0.147509,-0.314982,0.586060,-0.000089,-0.000815,0.185170,0.000014,0.000118,-0.788825,-0.000062,-0.000577,16.791018,0.288882,0.957365,-0.190107,-0.008272,13.512250,0.233653,0.972320,-0.036397,-0.004408,77.697983,0.977038,0.213065,-0.329285,-0.011200
1880.000000,1880.000000,0.331055,-1.039551,-0.090820,1880.000000,-12.575150,10.429382,26.805878,1880.000000,77.699966,23.999954,-101.700012,16.602798,13.480466,77.349915,0.348898,-0.005100,-0.000607,-0.932427,-0.001498,-0.000272,-0.094075,-0.004319,0.000970,-2.197485,-0.392501,-1.040808,-9.185672,-0.615621,-0.736903,-5.054280,-0.900225,-1.047734,0.585961,-0.000099,-0.000011,0.185075,-0.000095,-0.000109,-0.788921,-0.000096,-0.000034,16.602798,0.285735,0.958309,-0.188219,0.001888,13.480466,0.233114,0.972449,-0.031784,0.004613,77.349915,0.975726,0.218996,-0.348068,-0.018784
1890.000000,1890.000000,0.333008,-1.038574,-0.094727,1890.000000,-12.636185,8.659363,26.683807,1890.000000,77.699966,24.449966,-101.550003,16.413050,13.453439,76.990318,0.343508,-0.005390,-0.000290,-0.934112,-0.001685,-0.000187,-0.097147,-0.003072,0.001247,-2.723459,-0.525974,-0.133472,-8.955263,0.230409,0.846029,-5.566951,-0.512671,0.387553,0.586518,0.000557,0.000657,0.185004,-0.000071,0.000024,-0.788524,0.000397,0.000494,16.413050,0.282560,0.959250,-0.189749,-0.001530,13.453439,0.232655,0.972559,-0.027027,0.004757,76.990318,0.974332,0.225116,-0.359596,-0.011528
1900.000000,1900.000000,0.334473,-1.031250,-0.107910,1900.000000,-14.101028,8.476257,25.463104,1900.000000,76.499954,24.449966,-101.550003,16.232552,13.443583,76.634293,0.338130,-0.005378,0.000012,-0.935856,-0.001744,-0.000059,-0.099208,-0.002061,0.001010,-4.537224,-1.813765,-1.287792,-7.192654,1.762609,1.532201,-7.065887,-1.498936,-0.986264,0.587585,0.001067,0.000510,0.185135,0.000131,0.000202,-0.787698,0.000826,0.000428,16.232552,0.279537,0.960135,-0.180498,0.009251,13.443583,0.232488,0.972599,-0.009855,0.017172,76.634293,0.972914,0.231166,-0.356026,0.003571
1910.000000,1910.000000,0.335937,-1.035644,-0.122559,1910.000000,-14.650345,9.269714,24.791718,1910.000000,74.699966,23.999954,-102.000000,16.056036,13.440983,76.291649,0.333003,-0.005127,0.000251,-0.937526,-0.001670,0.000074,-0.100770,-0.001562,0.000499,-5.303889,-0.766665,1.047100,-4.618605,2.574049,0.811439,-7.885231,-0.819345,0.679591,0.588448,0.000862,-0.000205,0.185448,0.000314,0.000183,-0.786981,0.000718,-0.000108,16.056036,0.276577,0.960992,-0.176516,0.003983,13.440983,0.232444,0.972610,-0.002601,0.007255,76.291649,0.971515,0.236980,-0.342644,0.013382
1920.000000,1920.000000,0.323242,-1.045410,-0.140137,1920.000000,-14.772415,9.452820,24.608612,1920.000000,78.149963,23.549957,-102.000000,15.878975,13.441319,75.956604,0.328144,-0.004859,0.000268,-0.939068,-0.001543,0.000128,-0.102335,-0.001566,-0.000004,-5.576648,-0.272758,0.493906,-2.829787,1.788818,-0.785231,-8.138053,-0.252821,0.566523,0.588932,0.000484,-0.000378,0.185656,0.000207,-0.000106,-0.786569,0.000411,-0.000306,15.878975,0.273606,0.961842,-0.177061,-0.000546,13.441319,0.232449,0.972609,0.000336,0.002936,75.956604,0.970112,0.242657,-0.335045,0.007599
1930.000000,1930.000000,0.321289,-1.043457,-0.146484,1930.000000,-14.833450,9.635925,24.608612,1930.000000,78.149963,23.849960,-100.500000,15.699771,13.444365,75.628464,0.323417,-0.004727,0.000132,-0.940496,-0.001428,0.000115,-0.104251,-0.001915,-0.000350,-5.746759,-0.170112,0.102647,-1.182369,1.647418,-0.141400,-8.163479,-0.025426,0.227396,0.589743,0.000811,0.000327,0.185559,-0.000097,-0.000304,-0.785984,0.000585,0.000174,15.699771,0.270597,0.962693,-0.179204,-0.002143,13.444365,0.232501,0.972596,0.003046,0.002710,75.628464,0.968707,0.248209,-0.328140,0.006905
1940.000000,1940.000000,0.296387,-1.027344,-0.151855,1940.000000,-14.223099,9.330750,25.707245,1940.000000,78.299957,23.849960,-100.500000,15.507726,13.444061,75.301285,0.318687,-0.004730,-0.000003,-0.941842,-0.001345,0.000083,-0.106642,-0.002391,-0.000475,-5.238482,0.508278,0.678390,-0.137616,1.044753,-0.602665,-7.105005,1.058474,1.083899,0.591273,0.001530,0.000719,0.185303,-0.000256,-0.000159,-0.784894,0.001090,0.000505,15.507726,0.267368,0.963594,-0.192045,-0.012841,13.444061,0.232496,0.972597,-0.000303,-0.003349,75.301285,0.967273,0.253736,-0.327179,0.000961
1950.000000,1950.000000,0.308105,-1.013183,-0.156738,1950.000000,-13.185501,8.537292,26.012421,1950.000000,77.849960,24.749954,-102.000000,15.310884,13.436873,74.969887,0.313944,-0.004744,-0.000014,-0.943104,-0.001262,0.000083,-0.109517,-0.002876,-0.000485,-4.344945,0.893537,0.385259,0.351766,0.489382,-0.555371,-6.868655,0.236350,-0.822124,0.593104,0.001831,0.000301,0.185147,-0.000156,0.000100,-0.783548,0.001346,0.000256,15.310884,0.264056,0.964507,-0.196841,-0.004796,13.436873,0.232374,0.972627,-0.007188,-0.006885,74.969887,0.965790,0.259327,-0.331398,-0.004219
1960.000000,1960.000000,0.316894,-1.009765,-0.142090,1960.000000,-12.514114,8.110046,25.951385,1960.000000,77.849960,22.799957,-101.250000,15.113300,13.426915,74.638214,0.309485,-0.004458,0.000285,-0.944201,-0.001097,0.000165,-0.112707,-0.003190,-0.000314,-3.861259,0.483686,-0.409851,1.148506,0.796740,0.307358,-6.976742,-0.108087,-0.344437,0.594745,0.001641,-0.000190,0.185007,-0.000140,0.000016,-0.782337,0.001212,-0.000134,15.113300,0.260729,0.965412,-0.197584,-0.000743,13.426915,0.232205,0.972667,-0.009958,-0.002770,74.638214,0.964272,0.264913,-0.331673,-0.000275
1970.000000,1970.000000,0.318848,-1.004883,-0.149414,1970.000000,-11.110306,7.438660,25.279999,1970.000000,77.549957,22.799957,-101.250000,14.921724,13.407125,74.304207,0.305642,-0.003843,0.000615,-0.945063,-0.000861,0.000236,-0.115928,-0.003220,-0.000031,-2.703514,1.157745,0.674059,1.639633,0.491127,-0.305613,-7.633103,-0.656361,-0.548274,0.596107,0.001362,-0.000279,0.184453,-0.000554,-0.000414,-0.781430,0.000906,-0.000305,14.921724,0.257499,0.966278,-0.191576,0.006008,13.407125,0.231869,0.972747,-0.019791,-0.009832,74.304207,0.962712,0.270530,-0.334007,-0.002335
1980.000000,1980.000000,0.318848,-0.998535,-0.137207,1980.000000,-10.255814,7.743835,24.120331,1980.000000,77.849960,23.249954,-99.900009,14.741683,13.382931,73.977615,0.302510,-0.003132,0.000711,-0.945689,-0.000626,0.000236,-0.119000,-0.003072,0.000148,-2.159434,0.544080,-0.613665,3.016931,1.377298,0.886171,-8.671876,-1.038773,-0.382411,0.597329,0.001221,-0.000141,0.183506,-0.000947,-0.000393,-0.780720,0.000710,-0.000197,14.741683,0.254462,0.967083,-0.180041,0.011535,13.382931,0.231458,0.972845,-0.024194,-0.004403,73.977615,0.961154,0.276013,-0.326591,0.007416
1990.000000,1990.000000,0.329590,-1.006347,-0.122559,1990.000000,-9.279251,8.964539,23.754120,1990.000000,77.849960,23.249954,-100.650009,14.566062,13.352740,73.667343,0.300126,-0.002384,0.000748,-0.946111,-0.000423,0.000203,-0.121646,-0.002646,0.000426,-1.536688,0.622745,0.078665,5.141466,2.124535,0.747237,-8.830584,-0.158708,0.880065,0.598517,0.001188,-0.000033,0.182555,-0.000952,-0.000005,-0.780033,0.000687,-0.000023,14.566062,0.251496,0.967858,-0.175621,0.004420,13.352740,0.230945,0.972967,-0.030190,-0.005997,73.667343,0.959645,0.281214,-0.310272,0.016319
2000.000000,2000.000000,0.315918,-0.993164,-0.116211,2000.000000,-8.729935,10.002136,22.533417,2000.000000,77.699966,23.249954,-100.650009,14.403983,13.319993,73.371513,0.298460,-0.001667,0.000717,-0.946392,-0.000281,0.000142,-0.123548,-0.001902,0.000744,-1.369764,0.166925,-0.455821,6.890788,1.749322,-0.375213,-9.759787,-0.929203,-0.770495,0.599586,0.001069,-0.000119,0.181737,-0.000818,0.000134,-0.779402,0.000630,-0.000057,14.403983,0.248757,0.968566,-0.162079,0.013542,13.319993,0.230389,0.973099,-0.032747,-0.002557,73.371513,0.958180,0.286165,-0.295830,0.014442
2010.000000,2010.000000,0.304199,-0.990234,-0.115723,2010.000000,-7.875443,11.405945,22.106171,2010.000000,79.049957,21.149963,-100.500000,14.247927,13.280803,73.093498,0.297257,-0.001203,0.000464,-0.946626,-0.000234,0.000047,-0.124651,-0.001103,0.000799,-0.919942,0.449822,0.282897,8.815633,1.924845,0.175523,-9.814130,-0.054343,0.874860,0.600589,0.001003,-0.000066,0.180725,-0.001012,-0.000194,-0.778865,0.000537,-0.000093,14.247927,0.246118,0.969240,-0.156056,0.006022,13.280803,0.229724,0.973256,-0.039190,-0.006443,73.093498,0.956781,0.290811,-0.278015,0.017815
2020.000000,2020.000000,0.313476,-0.987793,-0.112793,2020.000000,-7.631302,12.809753,21.556854,2020.000000,79.049957,23.999954,-99.150009,14.099246,13.240455,72.832527,0.296308,-0.000948,0.000254,-0.946869,-0.000243,-0.000009,-0.125062,-0.000411,0.000693,-1.088718,-0.168775,-0.618597,10.543507,1.727874,-0.196971,-9.943532,-0.129402,-0.075059,0.601864,0.001275,0.000271,0.179460,-0.001265,-0.000253,-0.778174,0.000692,0.000154,14.099246,0.243602,0.969875,-0.148681,0.007376,13.240455,0.229038,0.973417,-0.040348,-0.001158,72.832527,0.955446,0.295166,-0.260971,0.017044
2030.000000,2030.000000,0.310059,-0.984863,-0.122559,2030.000000,-7.631302,15.068054,21.007538,2030.000000,78.749954,23.999954,-99.150009,13.958093,13.200758,72.596329,0.295627,-0.000681,0.000267,-0.947095,-0.000226,0.000017,-0.124961,0.000101,0.000512,-1.472560,-0.383842,-0.215067,12.901988,2.358481,0.630608,-10.024358,-0.080826,0.048576,0.603460,0.001596,0.000322,0.178718,-0.000742,0.000523,-0.777107,0.001066,0.000374,13.958093,0.241212,0.970472,-0.141153,0.007527,13.200758,0.228364,0.973576,-0.039697,0.000651,72.596329,0.954221,0.299102,-0.236198,0.024773
2040.000000,2040.000000,0.291016,-0.971679,-0.125000,2040.000000,-7.875443,16.654968,20.275116,2040.000000,78.749954,22.649963,-100.050003,13.826287,13.163819,72.377945,0.295100,-0.000527,0.000154,-0.947304,-0.000208,0.000018,-0.124628,0.000333,0.000232,-2.051733,-0.579173,-0.195331,14.368977,1.466989,-0.891493,-10.235579,-0.211222,-0.130396,0.605083,0.001623,0.000026,0.178616,-0.000102,0.000640,-0.775868,0.001239,0.000173,13.826287,0.238979,0.971025,-0.131805,0.009348,13.163819,0.227736,0.973723,-0.036939,0.002758,72.377945,0.953074,0.302737,-0.218384,0.017815
2050.000000,2050.000000,0.279785,-0.970215,-0.128418,2050.000000,-8.607864,16.960144,19.481659,2050.000000,78.749954,21.599960,-101.100006,13.704046,13.134363,72.164810,0.294411,-0.000688,-0.000161,-0.947561,-0.000258,-0.000049,-0.124297,0.000331,-0.000002,-3.040972,-0.989239,-0.410065,14.430901,0.061924,-1.405065,-10.448548,-0.212969,-0.001747,0.606417,0.001334,-0.000288,0.178312,-0.000303,-0.000201,-0.774895,0.000973,-0.000266,13.704046,0.236907,0.971532,-0.122241,0.009564,13.134363,0.227235,0.973840,-0.029456,0.007483,72.164810,0.951941,0.306280,-0.213135,0.005249
2060.000000,2060.000000,0.265625,-0.954590,-0.139648,2060.000000,-9.340286,16.899109,17.772675,2060.000000,79.349960,21.599960,-101.100006,13.599652,13.112464,71.953644,0.293303,-0.001108,-0.000420,-0.947922,-0.000360,-0.000103,-0.124168,0.000129,-0.000202,-3.934610,-0.893638,0.095600,14.082732,-0.348168,-0.410092,-11.479668,-1.031119,-0.818151,0.607357,0.000940,-0.000395,0.177312,-0.001001,-0.000698,-0.774389,0.000507,-0.000466,13.599652,0.235136,0.971962,-0.104394,0.017847,13.112464,0.226863,0.973927,-0.021899,0.007557,71.953644,0.950806,0.309786,-0.211166,0.001968
2070.000000,2070.000000,0.250488,-0.970703,-0.146484,2070.000000,-8.729935,16.105652,17.711639,2070.000000,79.649963,21.749954,-98.850006,13.495845,13.085298,71.737244,0.291555,-0.001748,-0.000640,-0.948422,-0.000500,-0.000140,-0.124466,-0.000298,-0.000427,-3.452979,0.481631,1.375269,13.010358,-1.072374,-0.724206,-10.803403,0.676265,1.707384,0.608216,0.000859,-0.000081,0.175810,-0.001502,-0.000501,-0.774057,0.000332,-0.000174,13.495845,0.233375,0.972387,-0.103807,0.000587,13.085298,0.226401,0.974034,-0.027166,-0.005267,71.737244,0.949629,0.313375,-0.216400,-0.005234
2080.000000,2080.000000,0.235840,-0.980469,-0.144043,2080.000000,-7.753372,13.908386,18.077850,2080.000000,79.949966,23.249954,-100.200012,13.387346,13.049917,71.501694,0.288895,-0.002660,-0.000912,-0.949133,-0.000711,-0.000211,-0.125244,-0.000778,-0.000480,-2.648953,0.804026,0.322394,10.637195,-2.373163,-1.300789,-9.735135,1.068268,0.392003,0.609300,0.001084,0.000225,0.174421,-0.001389,0.000112,-0.773518,0.000538,0.000206,13.387346,0.231533,0.972827,-0.108499,-0.004691,13.049917,0.225800,0.974174,-0.035380,-0.008214,71.501694,0.948333,0.317277,-0.235550,-0.019150
2090.000000,2090.000000,0.225586,-0.978027,-0.151367,2090.000000,-7.814407,12.382507,18.383026,2090.000000,79.949966,21.149963,-100.050003,13.273566,13.017091,71.253868,0.285155,-0.003740,-0.001080,-0.950107,-0.000974,-0.000263,-0.126426,-0.001182,-0.000403,-2.895786,-0.246833,-1.050859,9.067822,-1.569372,0.803791,-8.779291,0.955844,-0.112424,0.610488,0.001188,0.000104,0.173352,-0.001069,0.000321,-0.772821,0.000697,0.000159,13.273566,0.229601,0.973285,-0.113780,-0.005281,13.017091,0.225242,0.974303,-0.032826,0.002554,71.253868,0.946952,0.321376,-0.247826,-0.012276
2100.000000,2100.000000,0.232910,-0.975586,-0.166016,2100.000000,-7.265091,10.307312,18.993378,2100.000000,79.499954,21.149963,-100.050003,13.150516,12.981320,70.988701,0.280477,-0.004678,-0.000938,-0.951276,-0.001169,-0.000195,-0.128088,-0.001662,-0.000480,-2.526862,0.368924,0.615757,7.072175,-1.995647,-0.426275,-7.579628,1.199663,0.243819,0.611600,0.001112,-0.000077,0.172150,-0.001203,-0.000134,-0.772211,0.000611,-0.000087,13.150516,0.227510,0.973776,-0.123051,-0.009271,12.981320,0.224633,0.974443,-0.035770,-0.002944,70.988701,0.945454,0.325755,-0.265167,-0.017342
2110.000000,2110.000000,0.248535,-0.979004,-0.150879,2110.000000,-7.020950,9.941101,19.542694,2110.000000,80.549957,22.349960,-99.300003,13.018461,12.946210,70.723312,0.275348,-0.005129,-0.000451,-0.952483,-0.001207,-0.000038,-0.130229,-0.002141,-0.000479,-2.471671,0.055191,-0.313733,6.854199,-0.217976,1.777671,-6.511707,1.067921,-0.131742,0.612668,0.001068,-0.000044,0.170839,-0.001311,-0.000108,-0.771656,0.000555,-0.000055,13.018461,0.225265,0.974298,-0.132054,-0.009004,12.946210,0.224036,0.974581,-0.035110,0.000660,70.723312,0.943935,0.330130,-0.265388,-0.000221
